T [ms],AccX [mg],AccY [mg],AccZ [mg],GyroX [mdps],GyroY [mdps],GyroZ [mdps],MagX [mgauss],MagY [mgauss],MagZ [mgauss]
1175, -726, 32, 734, -1540, 2660, 560, 177, -181, -445
1275, -726, 32, 735, -1610, 2660, 560, 171, -171, -441
1375, -726, 33, 734, -1540, 2660, 560, 177, -171, -451
1475, -727, 34, 734, -1610, 2590, 560, 180, -172, -453
1575, -725, 31, 736, -1610, 2590, 490, 187, -183, -445
1675, -727, 32, 735, -1540, 2660, 560, 181, -184, -453
1775, -726, 32, 735, -1540, 2660, 560, 181, -178, -442
1875, -727, 33, 735, -1540, 2660, 560, 175, -181, -454
1975, -726, 32, 736, -1540, 2660, 560, 183, -175, -442
2075, -727, 33, 735, -1540, 2660, 560, 186, -177, -450
2175, -725, 32, 737, -1540, 2590, 560, 186, -175, -450
2275, -727, 33, 735, -1540, 2660, 560, 183, -172, -451
2375, -726, 33, 736, -1540, 2660, 560, 183, -178, -447
2475, -726, 33, 736, -1610, 2590, 560, 184, -178, -444
2575, -726, 32, 736, -1540, 2660, 560, 175, -177, -445
2675, -726, 34, 735, -1540, 2660, 560, 177, -177, -454
2775, -726, 32, 736, -1540, 2660, 560, 181, -178, -441
2875, -726, 32, 736, -1540, 2660, 630, 172, -180, -448
2975, -727, 34, 735, -1540, 2660, 630, 180, -174, -456
3075, -726, 33, 736, -1540, 2660, 560, 180, -184, -447
3175, -725, 33, 736, -1540, 2660, 560, 186, -177, -456
3275, -727, 34, 735, -1470, 2730, 630, 183, -178, -448
3375, -726, 33, 736, -1610, 2590, 560, 175, -177, -445
3475, -726, 33, 736, -1540, 2660, 560, 180, -178, -448
3575, -727, 34, 735, -1540, 2660, 560, 183, -178, -450
3675, -726, 32, 736, -1540, 2590, 560, 183, -174, -441
3775, -727, 33, 736, -1540, 2660, 560, 186, -172, -454
3875, -727, 34, 735, -1540, 2660, 560, 184, -175, -448
3975, -726, 33, 736, -1610, 2590, 630, 184, -181, -445
4075, -726, 33, 736, -1540, 2660, 560, 181, -184, -453
4175, -727, 34, 735, -1470, 2660, 560, 177, -171, -442
4275, -726, 33, 736, -1540, 2660, 630, 181, -177, -447
4375, -726, 33, 736, -1610, 2590, 560, 177, -180, -451
4475, -725, 31, 737, -1610, 2660, 560, 183, -174, -451
4575, -727, 33, 735, -1540, 2730, 630, 183, -180, -448
4675, -726, 33, 736, -1540, 2590, 560, 183, -171, -451
4775, -726, 33, 736, -1540, 2660, 560, 187, -175, -451
4875, -727, 33, 735, -1470, 2660, 560, 174, -183, -442
4975, -727, 34, 735, -1540, 2660, 560, 178, -177, -450
5075, -726, 33, 736, -1540, 2660, 560, 181, -174, -441
5175, -727, 33, 736, -1540, 2660, 630, 178, -172, -453
5275, -727, 33, 735, -1610, 2660, 560, 189, -172, -453
5375, -726, 32, 736, -1610, 2590, 560, 178, -171, -460
5475, -725, 43, 742, -2170, 2450, 1050, 184, -178, -447
5575, -721, 17, 736, -20160, -2520, 13230, 183, -187, -444
5675, -719, 27, 743, -1400, 2800, 700, 183, -175, -447
5775, -720, 27, 743, -1400, 2730, 560, 174, -171, -448
5875, -720, 26, 743, -1540, 2660, 490, 180, -171, -441
5975, -720, 27, 743, -1400, 2660, 560, 178, -165, -453
6075, -722, 31, 739, -1400, 2590, 420, 180, -171, -450
6175, -717, 23, 746, -1890, 2380, 490, 181, -166, -453
6275, -717, 23, 745, -1540, 2660, 630, 178, -180, -448
6375, -721, 28, 742, -1400, 2730, 630, 187, -172, -442
6475, -719, 27, 743, -1540, 2660, 560, 181, -172, -442
6575, -718, 25, 744, -1470, 2660, 630, 181, -171, -439
6675, -720, 27, 743, -1470, 2730, 630, 181, -172, -445
6775, -724, 16, 737, -1400, 2660, 490, 202, -190, -445
6875, -770, 99, 767, 150430, 91630, -162960, 220, -223, -457
6975, -791, -19, 654, -32830, 140, 45640, 198, -186, -429
7075, -796, 44, 672, -168210, -26600, 158200, 189, -160, -400
7175, -770, -71, 654, -113680, -19180, 68320, 192, -165, -405
7275, -763, -11, 698, 11760, 5530, -7000, 189, -163, -403
7375, -765, -10, 694, -1610, 2660, 630, 180, -157, -414
7475, -764, -11, 696, -1610, 2590, 630, 189, -159, -403
7575, -765, -10, 694, -1470, 2660, 560, 187, -156, -409
7675, -765, -10, 694, -1470, 2590, 560, 187, -157, -403
7775, -764, -12, 696, -1540, 2520, 490, 196, -160, -408
7875, -764, -10, 695, -1540, 2660, 630, 201, -163, -411
7975, -764, -10, 695, -1540, 2660, 560, 189, -162, -402
8075, -764, -11, 695, -1540, 2590, 560, 186, -156, -400
8175, -765, -10, 695, -1540, 2590, 630, 184, -156, -408
8275, -763, -12, 696, -1540, 2590, 560, 181, -154, -411
8375, -765, -11, 695, -1470, 2660, 630, 192, -159, -411
8475, -765, -10, 694, -1470, 2590, 560, 193, -159, -408
8575, -764, -11, 696, -1610, 2590, 560, 195, -165, -405
8675, -764, -11, 695, -1540, 2590, 630, 187, -172, -414
8775, -764, -10, 696, -1540, 2590, 630, 184, -163, -409
8875, -766, -7, 692, -1400, 2660, 490, 190, -163, -399
8975, -764, -11, 695, -1610, 2450, 420, 189, -169, -405
9075, -762, -15, 698, -1750, 2520, 560, 186, -160, -403
9175, -764, -9, 695, -1470, 2660, 630, 190, -160, -411
9275, -765, -10, 695, -1540, 2660, 560, 196, -168, -417
9375, -764, -11, 696, -1540, 2590, 490, 189, -171, -409
9475, -765, -10, 694, -1470, 2660, 630, 190, -166, -402
9575, -764, -10, 695, -1540, 2590, 560, 183, -165, -412
9675, -765, -10, 694, -1540, 2590, 560, 189, -162, -400
9775, -763, -12, 697, -1610, 2520, 560, 187, -153, -412
9875, -765, -10, 694, -1540, 2590, 630, 186, -157, -405
9975, -764, -9, 694, -1540, 2590, 630, 193, -159, -412
10075, -765, -10, 695, -1540, 2660, 630, 186, -162, -405
10175, -764, -11, 696, -1470, 2590, 560, 195, -178, -402
10275, -762, -15, 698, -1400, 2660, 630, 195, -168, -406
10375, -766, -7, 693, -1330, 2870, 770, 186, -159, -400
10475, -766, -7, 693, -1610, 2590, 630, 186, -160, -403
10575, -766, -8, 693, -1610, 2450, 420, 190, -163, -409
10675, -762, -15, 699, -1750, 2380, 420, 193, -157, -406
10775, -765, -8, 694, -1610, 2450, 560, 192, -160, -403
10875, -762, -14, 698, -1820, 2450, 490, 195, -171, -412
10975, -765, -10, 695, -1610, 2520, 630, 195, -168, -409
11075, -764, -11, 695, -1610, 2450, 490, 192, -163, -403
11175, -762, -15, 699, -1610, 2450, 490, 180, -162, -412
11275, -765, -9, 694, -1330, 2730, 560, 186, -162, -403
11375, -766, -9, 693, -1750, 2520, 490, 192, -159, -406
11475, -762, -14, 698, -1820, 2380, 350, 193, -160, -411
11575, -760, -21, 703, -1820, 2450, 630, 196, -162, -400
11675, -767, -7, 692, -1610, 2590, 700, 196, -163, -411
11775, -760, -20, 701, -1750, 2450, 490, 195, -165, -408
11875, -764, -9, 695, -1400, 2800, 770, 193, -175, -405
11975, -765, -9, 695, -1610, 2800, 840, 187, -160, -406
12075, -764, -10, 695, -1470, 2520, 420, 190, -157, -406
12175, -763, -15, 698, -1540, 2450, 420, 195, -162, -406
12275, -766, -8, 693, -1540, 2660, 630, 187, -160, -408
12375, -764, -11, 696, -1540, 2590, 490, 189, -150, -408
12475, -765, -10, 695, -1540, 2590, 490, 196, -172, -405
12575, -764, -11, 696, -1610, 2520, 490, 189, -163, -406
12675, -764, -12, 696, -1470, 2590, 560, 189, -160, -403
12775, -764, -12, 696, -1470, 2660, 700, 181, -160, -408
12875, -765, -11, 696, -1470, 2660, 770, 186, -159, -409
12975, -764, -12, 695, -1470, 2660, 630, 189, -154, -406
13075, -765, -9, 694, -1400, 2730, 700, 186, -166, -408
13175, -764, -10, 695, -1400, 2590, 560, 189, -157, -408
13275, -766, -7, 693, -1540, 2590, 630, 193, -163, -408
13375, -764, -12, 696, -1680, 2520, 560, 189, -171, -403
13475, -763, -13, 698, -1610, 2520, 630, 189, -166, -405
13575, -767, -8, 693, -1400, 2660, 630, 187, -159, -405
13675, -763, -14, 697, -1610, 2520, 560, 195, -162, -409
13775, -766, -9, 694, -1470, 2660, 560, 183, -165, -406
13875, -765, -9, 694, -1540, 2590, 630, 189, -151, -406
13975, -765, -11, 696, -1540, 2590, 490, 195, -160, -409
14075, -764, -10, 695, -1540, 2590, 560, 183, -165, -403
14175, -764, -11, 696, -1610, 2590, 630, 189, -169, -406
14275, -765, -10, 695, -1540, 2590, 560, 181, -166, -396
14375, -764, -10, 694, -1540, 2590, 560, 187, -154, -406
14475, -764, -11, 696, -1610, 2590, 560, 181, -151, -402
14575, -764, -10, 695, -1540, 2660, 560, 187, -157, -403
14675, -774, -25, 673, 12810, 5740, -8260, 199, -166, -420
14775, -773, 27, 698, 51940, 13090, -30940, 192, -175, -420
14875, -779, 10, 679, -1470, 2660, 630, 196, -175, -408
14975, -780, 11, 677, -1470, 2590, 630, 196, -178, -414
15075, -778, 9, 679, -1540, 2520, 560, 186, -172, -421
15175, -779, 9, 679, -1540, 2590, 560, 195, -166, -414
15275, -778, 10, 679, -1610, 2520, 560, 189, -168, -415
15375, -778, 10, 678, -1540, 2520, 560, 196, -172, -421
15475, -778, 8, 679, -1540, 2590, 560, 193, -165, -426
15575, -779, 10, 678, -1540, 2520, 630, 192, -175, -414
15675, -778, 9, 680, -1610, 2520, 560, 186, -177, -414
15775, -779, 9, 678, -1470, 2590, 560, 187, -168, -411
15875, -779, 8, 679, -1540, 2660, 560, 192, -165, -418
15975, -779, 12, 677, -1400, 2590, 560, 190, -168, -409
16075, -778, 7, 680, -1540, 2590, 560, 186, -166, -417
16175, -777, 8, 680, -1680, 2520, 630, 190, -165, -423
16275, -779, 10, 678, -1540, 2590, 630, 199, -174, -418
16375, -779, 10, 678, -1470, 2520, 490, 184, -174, -409
16475, -780, 11, 677, -1610, 2590, 700, 199, -169, -406
16575, -778, 9, 679, -1750, 2590, 770, 189, -169, -417
16675, -781, 12, 676, -1680, 2660, 770, 189, -171, -414
16775, -781, 12, 675, -2100, 2450, 910, 186, -169, -412
16875, -774, 3, 685, -1820, 2030, 280, 186, -174, -409
16975, -775, 3, 685, -1610, 2450, 560, 198, -174, -420
17075, -780, 13, 676, -1470, 2800, 840, 187, -169, -415
17175, -779, 8, 679, -1540, 2870, 840, 193, -181, -414
17275, -778, 9, 680, -1330, 2940, 910, 193, -177, -418
17375, -782, 12, 675, -1260, 2940, 770, 190, -166, -412
17475, -783, 17, 670, -840, 3780, 1050, 192, -169, -418
17575, -788, 26, 663, -1120, 3290, 1120, 195, -163, -420
17675, -780, 19, 675, -1750, 2590, 630, 195, -169, -420
17775, -765, -8, 701, -3150, 1120, 700, 190, -178, -418
17875, -781, 10, 676, -630, 2170, -280, 199, -177, -411
17975, -773, 3, 689, -2030, 2450, 1120, 189, -172, -414
18075, -784, 19, 669, -1610, 2800, 840, 192, -172, -411
18175, -778, 9, 679, -1820, 2240, 420, 190, -165, -412
18275, -778, 6, 681, -1750, 2380, 420, 190, -163, -415
18375, -780, 11, 677, -1470, 2590, 490, 192, -175, -424
18475, -781, 12, 675, -1540, 2450, 350, 198, -172, -411
18575, -778, 8, 681, -1680, 2380, 350, 195, -177, -415
18675, -778, 5, 680, -1540, 2520, 350, 189, -178, -412
18775, -777, 6, 681, -1470, 2730, 700, 192, -177, -415
18875, -781, 11, 677, -1120, 3010, 700, 189, -171, -406
18975, -783, 13, 673, -1050, 3010, 560, 195, -162, -412
19075, -777, 7, 681, -490, 3010, 210, 186, -171, -418
19175, -782, 14, 673, 1330, 3780, -1260, 187, -175, -420
19275, -783, 13, 674, -560, 3430, 210, 193, -180, -417
19375, -786, 19, 667, -1470, 2590, 840, 198, -180, -408
19475, -782, 11, 675, -2170, 2170, 980, 196, -175, -408
19575, -799, 38, 645, -980, 1960, 70, 192, -177, -412
19675, -802, 34, 773, -3640, -910, -1120, 193, -166, -418
19775, -810, 44, 644, -210, 4830, 1680, 187, -168, -417
19875, -820, 65, 617, -1470, 2870, 840, 192, -171, -415
19975, -737, -48, 738, -3500, -840, -1470, 196, -172, -421
20075, -809, 52, 637, -630, 3920, 1260, 193, -175, -417
20175, -755, -21, 707, -2310, 1190, -210, 193, -178, -415
20275, -771, -1, 688, -1470, 2800, 700, 198, -178, -414
20375, -764, -10, 697, -1820, 2030, 280, 195, -169, -414
20475, -785, 16, 671, -1400, 2870, 770, 195, -171, -417
20575, -777, 6, 680, -1610, 2380, 490, 190, -175, -417
20675, -783, 13, 673, -1400, 2800, 700, 193, -168, -414
20775, -773, 1, 686, -1610, 2450, 490, 195, -177, -415
20875, -778, 9, 678, -1470, 2660, 630, 192, -168, -421
20975, -774, 2, 685, -1540, 2520, 560, 193, -184, -409
21075, -781, 11, 676, -1400, 2730, 700, 190, -183, -424
21175, -773, 1, 686, -1540, 2520, 560, 195, -169, -418
21275, -777, 7, 677, -1400, 2800, 770, 192, -166, -418
21375, -777, 7, 680, -1470, 2660, 560, 196, -169, -423
21475, -782, 12, 675, -1540, 2590, 490, 195, -162, -418
21575, -775, 3, 683, -1680, 2310, 280, 198, -186, -417
21675, -779, 8, 678, -1540, 2660, 700, 196, -178, -420
21775, -776, 6, 682, -1820, 2590, 770, 196, -177, -420
21875, -777, 6, 681, -1540, 2590, 630, 196, -181, -420
21975, -778, 8, 678, -1400, 2590, 490, 192, -175, -415
22075, -776, 4, 683, -1540, 2520, 560, 193, -171, -412
22175, -778, 8, 679, -1540, 2660, 630, 199, -166, -412
22275, -777, 6, 681, -1540, 2590, 630, 199, -163, -418
22375, -778, 7, 680, -1540, 2590, 630, 196, -171, -415
22475, -778, 7, 680, -1540, 2590, 630, 193, -172, -414
22575, -777, 6, 680, -1540, 2590, 630, 196, -181, -412
22675, -778, 8, 679, -1540, 2590, 630, 201, -169, -414
22775, -777, 6, 680, -1540, 2520, 560, 189, -168, -411
22875, -777, 6, 681, -1470, 2590, 560, 186, -171, -412
22975, -777, 7, 680, -1540, 2590, 630, 193, -169, -406
23075, -779, 8, 678, -1540, 2590, 560, 196, -172, -421
23175, -776, 5, 682, -1610, 2520, 560, 199, -169, -414
23275, -778, 7, 680, -1540, 2520, 490, 198, -169, -418
23375, -777, 5, 681, -1470, 2520, 420, 199, -189, -411
23475, -777, 5, 681, -1540, 2590, 560, 196, -181, -412
23575, -778, 7, 679, -1540, 2590, 630, 192, -180, -415
23675, -778, 7, 680, -1540, 2590, 630, 193, -169, -414
23775, -776, 5, 681, -1610, 2520, 630, 187, -171, -415
23875, -777, 7, 680, -1610, 2590, 630, 189, -171, -411
23975, -778, 6, 680, -1540, 2590, 560, 207, -174, -418
24075, -778, 8, 678, -1470, 2520, 560, 196, -177, -418
24175, -778, 7, 678, -1470, 2660, 560, 208, -175, -409
24275, -777, 5, 681, -1540, 2590, 560, 192, -180, -414
24375, -778, 7, 680, -1540, 2590, 630, 192, -177, -412
24475, -778, 8, 679, -1540, 2520, 560, 190, -171, -414
24575, -777, 6, 681, -1540, 2520, 560, 190, -169, -417
24675, -778, 7, 679, -1540, 2590, 560, 195, -165, -417
24775, -778, 7, 680, -1540, 2590, 560, 193, -177, -415
24875, -778, 7, 680, -1540, 2590, 560, 196, -178, -412
24975, -777, 6, 681, -1540, 2590, 630, 199, -175, -420
25075, -778, 7, 679, -1540, 2590, 630, 193, -184, -412
25175, -777, 5, 681, -1540, 2520, 490, 205, -175, -414
25275, -777, 6, 680, -1540, 2590, 560, 186, -171, -415
25375, -779, 7, 679, -1540, 2590, 560, 190, -162, -414
25475, -779, 8, 678, -1470, 2520, 490, 201, -178, -415
25575, -776, 4, 682, -1610, 2450, 560, 205, -174, -409
25675, -777, 7, 680, -1470, 2590, 630, 192, -181, -415
25775, -777, 5, 681, -1610, 2520, 630, 201, -174, -415
25875, -779, 8, 679, -1470, 2590, 630, 189, -175, -409
25975, -777, 6, 681, -1540, 2520, 560, 192, -178, -411
26075, -777, 5, 681, -1540, 2660, 630, 190, -175, -409
26175, -777, 5, 681, -1680, 2590, 630, 198, -169, -415
26275, -778, 7, 679, -1540, 2590, 560, 192, -165, -418
26375, -778, 7, 679, -1540, 2520, 490, 199, -172, -423
26475, -777, 6, 680, -1540, 2590, 630, 193, -175, -408
26575, -778, 7, 679, -1540, 2660, 700, 193, -184, -411
26675, -778, 7, 679, -1610, 2590, 630, 190, -184, -418
26775, -777, 5, 682, -1540, 2520, 560, 195, -172, -409
26875, -778, 7, 679, -1470, 2590, 630, 195, -168, -414
26975, -778, 7, 679, -1540, 2590, 630, 199, -171, -420
27075, -778, 7, 680, -1470, 2590, 560, 198, -168, -417
27175, -778, 7, 679, -1540, 2520, 490, 202, -174, -411
27275, -777, 5, 681, -1540, 2520, 560, 198, -177, -411
27375, -777, 6, 681, -1610, 2590, 630, 202, -178, -418
27475, -779, 7, 679, -1540, 2660, 630, 192, -178, -414
27575, -778, 6, 679, -1540, 2590, 560, 195, -174, -409
27675, -777, 5, 681, -1540, 2520, 560, 190, -169, -417
27775, -778, 7, 679, -1540, 2590, 630, 193, -168, -418
27875, -778, 7, 679, -1540, 2520, 630, 190, -172, -414
27975, -778, 6, 680, -1540, 2520, 560, 201, -175, -424
28075, -778, 7, 679, -1470, 2590, 560, 195, -175, -418
28175, -779, 7, 679, -1540, 2520, 560, 199, -172, -418
28275, -777, 5, 680, -1540, 2520, 490, 190, -183, -405
28375, -778, 6, 679, -1470, 2590, 630, 192, -181, -406
28475, -779, 8, 679, -1540, 2590, 630, 195, -172, -414
28575, -777, 6, 680, -1540, 2520, 560, 201, -165, -411
28675, -779, 7, 679, -1470, 2590, 560, 192, -169, -408
28775, -779, 7, 679, -1540, 2520, 630, 196, -174, -414
28875, -777, 6, 680, -1540, 2520, 560, 193, -178, -418
28975, -778, 6, 680, -1470, 2520, 560, 196, -177, -420
29075, -778, 7, 679, -1540, 2590, 630, 198, -171, -409
29175, -777, 6, 680, -1540, 2520, 560, 190, -180, -409
29275, -778, 6, 680, -1470, 2520, 560, 196, -174, -412
29375, -777, 6, 680, -1540, 2590, 560, 187, -168, -418
29475, -778, 7, 679, -1540, 2590, 630, 201, -174, -417
29575, -778, 7, 679, -1540, 2520, 560, 190, -175, -423
29675, -778, 6, 680, -1540, 2590, 630, 201, -181, -414
29775, -778, 7, 679, -1540, 2590, 630, 190, -175, -409
29875, -778, 6, 680, -1540, 2590, 630, 193, -180, -414
29975, -778, 6, 680, -1540, 2520, 560, 193, -177, -412
30075, -777, 5, 681, -1540, 2520, 560, 199, -172, -417
30175, -778, 7, 679, -1470, 2590, 630, 192, -165, -418
30275, -778, 6, 680, -1540, 2520, 560, 195, -168, -412
30375, -777, 6, 680, -1540, 2520, 560, 195, -177, -418
30475, -778, 7, 679, -1540, 2590, 630, 195, -175, -409
30575, -778, 6, 680, -1540, 2520, 490, 202, -175, -415
30675, -777, 5, 681, -1470, 2520, 560, 192, -177, -403
30775, -778, 7, 679, -1470, 2590, 630, 196, -165, -412
30875, -778, 7, 680, -1540, 2520, 630, 186, -168, -412
30975, -778, 7, 680, -1540, 2520, 630, 195, -169, -414
31075, -778, 7, 679, -1540, 2520, 560, 189, -172, -420
31175, -778, 7, 680, -1470, 2520, 490, 192, -172, -415
31275, -778, 7, 679, -1470, 2520, 560, 204, -175, -417
31375, -778, 7, 679, -1540, 2590, 560, 195, -178, -405
31475, -777, 7, 679, -1540, 2520, 490, 196, -177, -418
31575, -777, 5, 680, -1540, 2520, 560, 187, -171, -406
31675, -778, 7, 679, -1470, 2590, 630, 190, -171, -414
31775, -778, 7, 679, -1540, 2520, 560, 198, -160, -409
31875, -777, 5, 680, -1540, 2520, 560, 195, -172, -418
31975, -778, 7, 679, -1470, 2520, 560, 196, -165, -417
32075, -777, 5, 680, -1540, 2520, 560, 195, -178, -414
32175, -777, 6, 680, -1470, 2520, 490, 195, -178, -412
32275, -778, 6, 679, -1470, 2520, 490, 192, -180, -408
32375, -778, 6, 679, -1470, 2520, 490, 199, -172, -417
32475, -777, 5, 681, -1470, 2520, 560, 195, -166, -414
32575, -778, 6, 679, -1610, 2590, 700, 196, -172, -415
32675, -778, 6, 680, -1610, 2590, 700, 196, -171, -417
32775, -779, 7, 678, -1540, 2590, 630, 192, -172, -412
32875, -782, 1, 682, -5250, 2310, 4200, 192, -172, -405
32975, -776, 5, 681, -2590, 2380, 1260, 189, -177, -409
33075, -762, 100, 688, 1890, 3080, 490, 171, -172, -439
33175, -693, 153, 676, -81340, -43470, 73990, 162, -114, -403
33275, -846, -20, 654, -253260, 73220, 123620, 102, -52, -334
33375, -843, -66, 578, -220710, 33390, 135240, -7, -46, -354
33475, -789, 1, 646, -156800, -6370, 114800, -49, -66, -370
33575, -862, -142, 579, -150990, -1960, 96670, -87, -85, -387
33675, -816, -140, 599, -112560, -13370, 77700, -121, -115, -390
33775, -818, 11, 633, 14630, 3780, -7840, -109, -103, -391
33875, -816, -37, 629, -560, 2450, -490, -109, -106, -384
33975, -816, -36, 630, -1610, 2520, 560, -112, -103, -396
34075, -819, -40, 627, -1610, 2660, 490, -115, -100, -405
34175, -818, -39, 627, -1470, 2660, 420, -117, -100, -402
34275, -817, -37, 629, -1400, 2660, 490, -123, -97, -403
34375, -819, -39, 626, -1470, 2660, 490, -117, -103, -396
34475, -817, -38, 628, -1470, 2380, 770, -114, -109, -390
34575, -816, -35, 630, -1540, 2450, 770, -114, -106, -384
34675, -818, -37, 627, -1540, 2520, 560, -114, -108, -391
34775, -816, -37, 629, -1540, 2450, 560, -118, -102, -391
34875, -817, -38, 628, -1470, 2590, 560, -118, -102, -396
34975, -817, -38, 628, -1470, 2520, 560, -112, -100, -403
35075, -817, -37, 629, -1540, 2520, 560, -120, -99, -403
35175, -818, -38, 628, -1470, 2590, 630, -109, -97, -399
35275, -817, -35, 629, -1050, 2730, 1050, -108, -102, -391
35375, -818, -38, 627, -1540, 2450, 630, -115, -103, -396
35475, -816, -37, 629, -1750, 2310, 700, -108, -103, -397
35575, -817, -37, 629, -1610, 2380, 700, -115, -97, -388
35675, -817, -38, 628, -1680, 2380, 770, -112, -99, -393
35775, -816, -36, 630, -1540, 2450, 630, -115, -100, -408
35875, -817, -37, 629, -1540, 2520, 630, -108, -99, -399
35975, -816, -37, 629, -1540, 2450, 560, -118, -111, -393
36075, -816, -37, 630, -1400, 2310, 770, -115, -105, -393
36175, -814, -31, 634, -1330, 2310, 630, -111, -105, -397
36275, -813, -35, 633, -1540, 2660, 560, -111, -111, -397
36375, -817, -36, 629, -1330, 2660, 560, -114, -105, -393
36475, -815, -34, 631, -1400, 2660, 560, -118, -96, -405
36575, -815, -33, 631, -1050, 2940, 980, -123, -99, -397
36675, -819, -37, 626, -140, 3080, -700, -117, -102, -396
36775, -820, -39, 624, 700, 2870, -1260, -111, -100, -396
36875, -819, -35, 626, 1680, 2660, -2170, -97, -100, -382
36975, -831, -57, 643, 80150, 22470, -79800, -76, -96, -370
37075, -844, -52, 576, -17220, -18410, 58170, -93, -102, -390
37175, -817, -36, 628, -4760, 2380, 2380, -94, -111, -387
37275, -822, -45, 622, -10640, 2380, 7280, -103, -103, -400
37375, -818, -38, 626, -1820, 2520, 490, -94, -99, -391
37475, -820, -40, 625, -280, 2730, -70, -100, -102, -391
37575, -818, -36, 626, -70, 2660, 280, -97, -103, -394
37675, -820, -38, 625, -1540, 2520, 700, -96, -108, -393
37775, -820, -37, 625, -1610, 2450, 980, -102, -99, -385
37875, -816, -60, 630, 630, 2100, 2520, -102, -94, -397
37975, -823, -7, 614, -14000, 2450, 8680, -81, -97, -412
38075, -830, 26, 625, -18760, 1540, 13580, -73, -94, -415
38175, -817, -28, 628, -3640, 2310, 2310, -79, -88, -426
38275, -820, -28, 626, -1330, 2170, 1190, -78, -102, -424
38375, -815, -29, 630, -2240, 2450, 1120, -75, -90, -415
38475, -817, -31, 629, -2520, 2520, 1190, -75, -102, -412
38575, -819, -30, 627, -1610, 2660, 630, -78, -94, -405
38675, -818, -31, 627, -1540, 2590, 560, -82, -100, -417
38775, -819, -29, 628, -1610, 2590, 630, -76, -97, -412
38875, -816, -30, 629, -1750, 2660, 630, -85, -99, -417
38975, -821, -33, 626, -1960, 2590, 630, -72, -91, -412
39075, -816, -29, 629, -1400, 2450, 490, -72, -96, -420
39175, -818, -32, 627, -1610, 2520, 700, -85, -97, -409
39275, -820, -32, 626, -1540, 2450, 700, -76, -99, -402
39375, -817, -29, 629, -1400, 2380, 770, -73, -87, -409
39475, -818, -31, 628, -1890, 2450, 910, -75, -108, -421
39575, -818, -31, 626, -3150, 2520, 1960, -82, -90, -414
39675, -849, -64, 608, -16940, 5600, 17430, -103, -103, -421
39775, -858, -40, 605, -72800, 7490, 117950, -168, -148, -445
39875, -497, 74, 641, -194810, -38290, 51590, -105, -163, -477
39975, -642, 62, 735, -50610, -37380, -3360, -97, -169, -475
40075, -684, -1, 757, 17710, 7910, -16940, -90, -157, -442
40175, -719, 29, 743, 8960, 10150, -9590, -85, -153, -436
40275, -713, 37, 740, 770, 3500, -1540, -79, -148, -435
40375, -593, 201, 842, 24780, 29260, -4410, -108, -126, -453
40475, -713, 91, 605, -16380, 44100, -11480, -150, -151, -463
40575, -839, -199, 579, -9170, 10780, -3850, -153, -150, -454
40675, -840, -73, 600, -20090, 17430, -350, -147, -153, -442
40775, -813, -50, 631, 4970, 10150, -16380, -151, -157, -439
40875, -836, -88, 606, -12880, 4200, 560, -139, -157, -436
40975, -853, -74, 581, -2940, -4410, 16450, -163, -165, -447
41075, -835, -53, 623, -1190, -13020, 17080, -156, -169, -448
41175, -808, 24, 645, 36050, 4130, -27720, -148, -156, -453
41275, -815, -34, 631, -560, 2800, -350, -156, -156, -451
41375, -813, -35, 634, -2730, 3430, -1470, -153, -145, -457
41475, -819, -40, 627, -1540, 2520, 560, -150, -154, -453
41575, -816, -42, 632, -1750, 2030, 980, -153, -145, -448
41675, -808, -32, 639, 630, 910, 3710, -153, -154, -445
41775, -818, -35, 629, -1470, 2870, 420, -147, -160, -435
41875, -817, -35, 630, -1470, 2590, 420, -159, -153, -442
41975, -812, -35, 635, -1680, 2310, 490, -150, -154, -442
42075, -813, -33, 635, -1470, 2170, 910, -153, -151, -441
42175, -814, -34, 633, -1610, 2520, 700, -144, -154, -457
42275, -817, -34, 635, -3990, 2170, 2730, -154, -150, -454
42375, -809, -33, 635, -5320, 2660, 3150, -150, -157, -459
42475, -826, -48, 617, -2450, 1750, 2030, -156, -150, -448
42575, -863, -123, 513, 2870, -3500, 2870, -144, -124, -439
42675, -776, 24, 672, 30800, 3920, -22470, -124, -103, -435
42775, -808, -32, 647, -23590, 9030, 7840, -123, -82, -438
42875, -814, -30, 636, -9100, 3500, 2590, -115, -93, -447
42975, -810, -34, 637, -2240, 2730, -490, -123, -87, -453
43075, -807, -17, 644, 10430, -70, -5110, -117, -82, -439
43175, -810, -31, 637, 6510, 5530, -7140, -118, -85, -438
43275, -811, -27, 637, -1330, 2520, 770, -117, -88, -438
43375, -812, -33, 639, -2380, 2800, -70, -118, -90, -436
43475, -809, -25, 638, -770, 2310, 1470, -112, -93, -429
43575, -812, -34, 637, -3150, 3150, -1400, -117, -88, -436
43675, -808, -9, 640, -5880, 2310, 4690, -133, -93, -439
43775, -815, -23, 634, -26880, 1260, 20860, -133, -100, -459
43875, -813, -49, 633, -23660, 1400, 18830, -150, -100, -454
43975, -808, -31, 640, -7210, 2100, 5110, -148, -96, -453
44075, -804, -26, 641, -8260, 1050, 6160, -148, -105, -453
44175, -811, -39, 643, -10220, 2940, 7000, -144, -114, -457
44275, -809, -18, 640, -4270, 3430, 1120, -154, -120, -450
44375, -809, -33, 642, -5600, 2100, 5180, -151, -115, -453
44475, -810, -31, 639, -1610, 2590, 630, -153, -108, -465
44575, -809, -33, 639, -1540, 2450, 560, -153, -106, -460
44675, -811, -31, 639, -1610, 2590, 560, -153, -103, -459
44775, -809, -33, 640, -1610, 2450, 560, -153, -111, -465
44875, -807, -33, 641, -1540, 2310, 630, -156, -114, -454
44975, -813, -35, 637, -2590, 3290, -560, -148, -114, -453
45075, -813, -32, 635, -630, 2100, 1330, -147, -102, -450
45175, -805, -31, 643, -1120, 1960, 630, -154, -109, -453
45275, -807, -40, 643, -980, 2170, 350, -145, -100, -460
45375, -802, -26, 647, 7000, 3220, -5670, -144, -103, -454
45475, -812, -31, 637, -630, 3430, -70, -141, -102, -457
45575, -814, -32, 633, 350, 3150, -840, -145, -106, -448
45675, -806, 53, 655, 1190, 2520, -1400, -154, -114, -456
45775, -785, -138, 658, -61390, 2030, 44380, -163, -130, -463
45875, -842, -63, 613, 2940, 2450, -210, -145, -145, -475
45975, -782, 51, 663, 19180, 0, -10640, -135, -123, -465
46075, -822, -26, 652, -7980, 7350, -3430, -130, -115, -469
46175, -799, -16, 652, -2520, 1260, 1050, -126, -121, -466
46275, -823, -22, 644, -3710, 14630, -3430, -129, -117, -468
46375, -812, -34, 638, -2170, 3290, 280, -132, -112, -466
46475, -810, -29, 638, -1540, 2730, 350, -133, -117, -460
46575, -811, -29, 637, -1610, 2590, 630, -136, -114, -460
46675, -812, -29, 636, -1540, 2590, 560, -136, -117, -463
46775, -810, -28, 638, -1540, 2520, 560, -138, -115, -469
46875, -812, -28, 635, -1610, 2590, 560, -133, -112, -468
46975, -808, -28, 641, -1750, 2310, 700, -136, -117, -468
47075, -807, -28, 642, -1540, 2520, 630, -121, -112, -469
47175, -812, -29, 636, -1470, 2870, 630, -135, -106, -468
47275, -811, -29, 636, -1260, 2730, 350, -138, -112, -465
47375, -811, -28, 637, -840, 2730, 0, -136, -121, -460
47475, -812, -28, 636, -560, 2730, -210, -129, -115, -463
47575, -812, -28, 635, -1400, 2590, 420, -132, -117, -469
47675, -814, -29, 633, -1680, 2520, 700, -132, -111, -469
47775, -811, -28, 636, -2030, 2310, 980, -138, -108, -471
47875, -814, -30, 633, -2660, 2380, 1330, -132, -108, -475
47975, -808, -28, 641, -1820, 2240, 770, -139, -111, -471
48075, -811, -29, 637, -1680, 2520, 630, -139, -120, -463
48175, -809, -28, 640, -1540, 2590, 560, -141, -121, -453
48275, -812, -29, 636, -1400, 2730, 490, -133, -118, -465
48375, -812, -29, 635, -1330, 2660, 420, -132, -109, -471
48475, -812, -28, 636, -1330, 2590, 420, -135, -114, -474
48575, -810, -29, 638, -1540, 2450, 560, -135, -111, -471
48675, -811, -29, 636, -1540, 2520, 630, -132, -111, -471
48775, -812, -29, 635, -1540, 2590, 560, -133, -109, -466
48875, -810, -29, 638, -1540, 2520, 560, -133, -111, -462
48975, -811, -29, 637, -1470, 2660, 560, -130, -118, -459
49075, -813, -29, 634, -1540, 2590, 560, -130, -117, -459
49175, -811, -29, 637, -1540, 2590, 630, -129, -115, -462
49275, -811, -28, 637, -1470, 2590, 560, -129, -115, -475
49375, -813, -29, 634, -1540, 2590, 560, -139, -117, -468
49475, -811, -29, 637, -1610, 2520, 560, -135, -111, -466
49575, -811, -29, 637, -1540, 2590, 560, -129, -112, -468
49675, -812, -29, 636, -1540, 2590, 560, -132, -117, -463
49775, -812, -29, 636, -1540, 2590, 560, -135, -114, -453
49875, -810, -29, 637, -1610, 2520, 560, -133, -124, -454
49975, -810, -29, 638, -1540, 2590, 560, -135, -115, -463
50075, -812, -29, 636, -1400, 2660, 490, -133, -121, -468
50175, -811, -29, 637, -1470, 2520, 560, -129, -112, -471
50275, -811, -29, 637, -1610, 2590, 560, -132, -112, -474
50375, -811, -29, 637, -1540, 2590, 560, -135, -115, -468
50475, -812, -29, 635, -1610, 2450, 630, -133, -117, -465
50575, -810, -29, 638, -1680, 2380, 700, -127, -114, -456
50675, -812, -28, 636, -1750, 2520, 700, -136, -121, -463
50775, -810, -29, 639, -1750, 2310, 700, -136, -115, -466
50875, -811, -30, 637, -1750, 2450, 420, -129, -109, -472
50975, -811, -29, 637, -1540, 2380, 770, -135, -111, -469
51075, -812, -29, 637, -1540, 2520, 630, -136, -112, -468
51175, -811, -29, 637, -1610, 2520, 630, -141, -111, -466
51275, -810, -29, 638, -1680, 2450, 560, -135, -123, -463
51375, -811, -30, 637, -1680, 2660, 700, -130, -114, -466
51475, -810, -28, 639, -1610, 2660, 630, -136, -121, -465
51575, -811, -29, 637, -1540, 2730, 560, -124, -117, -468
51675, -813, -29, 635, -1540, 2730, 560, -129, -120, -474
51775, -812, -29, 637, -1820, 2310, 350, -132, -109, -477
51875, -808, -32, 640, -2170, 2450, -490, -138, -111, -469
51975, -804, -31, 644, -1470, 2380, 350, -129, -120, -472
52075, -814, -29, 634, -1260, 2800, 840, -129, -112, -466
52175, -813, -33, 635, -2660, 3010, -1120, -132, -118, -462
52275, -809, -32, 640, -1820, 2520, 70, -129, -118, -463
52375, -811, -29, 638, -630, 2240, 1820, -136, -121, -459
52475, -810, -30, 639, -1330, 2520, 840, -132, -105, -469
52575, -810, -29, 638, -1400, 2590, 770, -141, -112, -481
52675, -811, -29, 638, -1540, 2590, 560, -129, -117, -463
52775, -811, -29, 638, -1540, 2520, 560, -130, -112, -471
52875, -809, -29, 639, -1540, 2520, 560, -144, -117, -457
52975, -812, -29, 637, -1540, 2520, 560, -133, -121, -460
53075, -809, -29, 640, -1540, 2450, 560, -124, -124, -463
53175, -809, -29, 639, -1540, 2590, 560, -138, -117, -462
53275, -812, -30, 636, -1540, 2660, 560, -127, -121, -469
53375, -810, -29, 638, -1540, 2520, 560, -136, -112, -472
53475, -811, -29, 637, -1470, 2520, 630, -133, -117, -465
53575, -810, -29, 639, -1540, 2520, 560, -133, -123, -463
53675, -828, -113, 622, 8260, 2730, -6370, -118, -102, -453
53775, -829, -80, 541, 119840, -20720, -68810, -54, -97, -406
53875, -825, 154, 714, 190610, -1050, -134750, -28, -96, -385
53975, -760, 60, 683, -4760, 1890, 1960, -34, -99, -390
54075, -821, 60, 647, -52290, 24920, 36260, -57, -81, -399
54175, -810, 31, 649, -92330, 2240, 71470, -78, -94, -414
54275, -818, -11, 645, -21490, 20020, -34090, -70, -90, -412
54375, -818, 10, 642, -3570, 2450, -490, -67, -93, -417
54475, -781, -11, 657, -5110, -11200, 12670, -72, -93, -411
54575, -814, 30, 649, 700, 11130, -11340, -75, -85, -408
54675, -804, -46, 646, -32200, 10710, 12390, -73, -85, -408
54775, -810, -8, 637, -23030, 7210, 9590, -85, -76, -406
54875, -839, -30, 655, -23170, -1470, 19460, -124, -115, -450
54975, -708, -19, 773, -87220, -80780, 79240, -148, -171, -507
55075, -496, -28, 826, -80080, -118580, 63350, -129, -228, -549
55175, -497, -148, 883, -64890, -43890, 26740, -130, -225, -538
55275, -497, -71, 914, 11340, 2940, 5810, -138, -228, -538
55375, -528, -73, 619, 6510, 64120, 3430, -157, -133, -444
55475, -745, -14, 741, 26810, 182910, 9660, -160, -102, -426
55575, -744, -4, 655, 25970, 3850, -20860, -165, -111, -439
55675, -874, -125, 552, 40950, 4130, -31640, -174, -120, -447
55775, -812, -38, 636, 1750, 2240, -1190, -174, -123, -450
55875, -815, -34, 632, 5810, 3360, -4480, -168, -114, -441
55975, -813, -29, 636, 5040, 2520, -4130, -177, -123, -433
56075, -807, -34, 641, 2660, 1820, -3220, -168, -117, -435
56175, -810, -32, 639, 1400, 2170, -1750, -160, -123, -441
56275, -809, -37, 639, 1260, 2590, -1540, -172, -108, -436
56375, -809, -35, 640, 3990, 3360, -3220, -162, -109, -432
56475, -809, -34, 639, 4480, 3220, -3500, -163, -103, -435
56575, -811, -25, 643, 4690, -910, 420, -165, -106, -438
56675, -798, -18, 648, 2660, -2030, 2590, -156, -102, -433
56775, -801, -29, 646, -1400, 4060, -1260, -160, -97, -435
56875, -815, -31, 632, 2660, 5040, -3850, -160, -96, -438
56975, -813, -29, 634, -1470, 2730, 420, -153, -91, -427
57075, -817, -37, 646, -4130, -3080, -3640, -142, -106, -438
57175, -821, -49, 662, -3640, 4760, 2870, -153, -100, -430
57275, -788, -50, 689, -8540, -27300, -7210, -130, -136, -465
57375, -682, -94, 714, -39690, -51380, 3850, -136, -135, -471
57475, -722, -88, 735, 5950, -560, -7350, -139, -136, -463
57575, -724, -94, 735, -1750, 2100, 1190, -145, -144, -465
57675, -722, -94, 736, -1750, 2520, 630, -136, -138, -466
57775, -721, -93, 738, -1470, 2030, 910, -138, -141, -462
57875, -729, -106, 738, 980, 700, -1330, -136, -133, -465
57975, -707, -112, 747, 18970, -12810, -35280, -78, -129, -468
58075, -661, -139, 773, 24850, -1750, -105630, -82, -124, -466
58175, -644, -111, 808, 46480, -9310, -22540, -79, -124, -465
58275, -643, -146, 796, 17290, -9170, -3640, -85, -127, -472
58375, -638, -138, 807, 3850, -9590, 10780, -84, -141, -466
58475, -653, -44, 814, 21210, 14770, 32830, -115, -133, -451
58575, -658, -19, 791, -3920, 9800, 14490, -126, -126, -445
58675, -658, -81, 810, -8120, 11480, 7910, -132, -138, -451
58775, -659, -46, 799, -140, 770, 8330, -139, -141, -445
58875, -662, -6, 799, 10430, 910, 8750, -142, -142, -447
58975, -647, 10, 801, 8190, 3710, 14070, -141, -142, -457
59075, -676, -29, 802, -12670, 70, -25690, -126, -130, -450
59175, -635, -62, 807, -11270, -12250, -23380, -112, -129, -447
59275, -639, -68, 810, -1330, -1610, -13790, -112, -141, -450
59375, -648, -76, 796, -10920, 15050, 8960, -108, -129, -445
59475, -691, -121, 769, -23030, 17010, -10710, -105, -129, -439
59575, -683, -127, 773, -11410, 6930, 1330, -103, -123, -445
59675, -691, -132, 762, 3920, 7280, -5670, -102, -123, -450
59775, -645, -52, 779, 350, -140, 11270, -105, -117, -447
59875, -757, -143, 710, -68180, 44870, 40390, -138, -123, -450
59975, -758, -104, 705, -58730, 28700, 75390, -172, -136, -445
60075, -825, -57, 640, -104300, 24360, 112350, -192, -184, -465
60175, -812, -60, 637, -95830, 3430, 65380, -186, -204, -489
60275, -806, -70, 639, -71470, -1820, 46480, -180, -220, -507
60375, -792, -102, 655, -50050, -9800, -1190, -157, -234, -517
60475, -774, -158, 653, -63490, -7000, 210, -115, -235, -540
60575, -769, -264, 623, -56770, -6370, -11480, -120, -231, -534
60675, -758, -230, 667, 6160, 2310, -10780, -127, -226, -535
60775, -752, -238, 668, -1680, 1960, 210, -120, -235, -534
60875, -754, -236, 668, -1540, 2660, 630, -120, -232, -529
60975, -751, -238, 669, -1820, 1890, 210, -123, -237, -526
61075, -755, -236, 668, -1540, 2660, 630, -120, -234, -528
61175, -755, -237, 667, -1470, 2310, 350, -121, -228, -529
61275, -755, -234, 669, -350, 2590, -630, -117, -235, -532
61375, -756, -233, 667, -3640, 2520, 3150, -123, -232, -540
61475, -755, -237, 666, -1960, 2380, 560, -111, -226, -532
61575, -763, -233, 662, -1400, 2800, 420, -118, -237, -535
61675, -753, -233, 676, -1190, 3640, 1610, -121, -237, -529
61775, -743, -249, 679, -2870, 2380, 1820, -121, -235, -528
61875, -737, -243, 669, -2380, 420, -420, -123, -232, -523
61975, -742, -247, 680, -2380, -490, -1540, -115, -235, -532
62075, -753, -236, 668, -1540, 3430, 1120, -111, -232, -534
62175, -758, -235, 668, -1260, 3850, 1330, -120, -238, -535
62275, -761, -233, 666, -700, 4970, 1890, -117, -231, -540
62375, -746, -242, 672, -1890, 1470, 0, -117, -237, -540
62475, -745, -242, 672, -1820, 1540, 0, -112, -234, -529
62575, -744, -243, 673, -2380, 210, -770, -117, -238, -529
62675, -756, -237, 670, -1120, 4340, 1750, -118, -238, -535
62775, -749, -240, 670, -1750, 2170, 350, -115, -241, -526
62875, -752, -237, 672, -1470, 2730, 700, -126, -235, -537
62975, -724, -257, 688, -3710, -3360, -2310, -114, -232, -531
63075, -752, -233, 663, -1820, 3920, 2940, -121, -222, -537
63175, -772, -231, 671, 70, 7490, 3500, -120, -243, -540
63275, -771, -227, 664, 840, 10010, 5110, -135, -237, -522
63375, -732, -247, 677, -3150, -2100, -1960, -121, -237, -531
63475, -747, -239, 671, -1890, 2170, 910, -121, -238, -528
63575, -729, -249, 678, -4550, -6090, -4200, -118, -235, -532
63675, -763, -231, 668, 560, 8540, 3850, -118, -237, -534
63775, -750, -239, 674, -1680, 2170, 350, -106, -240, -543
63875, -767, -230, 669, 700, 8960, 4060, -117, -235, -541
63975, -741, -243, 674, -3150, -2030, -1960, -121, -234, -541
64075, -747, -239, 672, -1330, 3220, 910, -123, -240, -534
64175, -744, -242, 674, -2730, -910, -1330, -120, -240, -528
64275, -752, -234, 669, -980, 4130, 1470, -126, -246, -532
64375, -755, -239, 674, -1190, 3360, 980, -109, -241, -532
64475, -739, -242, 672, -3080, -1960, -1890, -117, -237, -534
64575, -763, -223, 651, -2030, 630, -630, -126, -232, -537
64675, -716, -262, 699, -3360, -2660, -1260, -115, -238, -535
64775, -736, -236, 683, -490, -1960, 9170, -129, -235, -535
64875, -712, -245, 694, -2940, -7560, -140, -141, -249, -528
64975, -761, -199, 678, 6440, 6440, 5390, -136, -249, -523
65075, -761, -202, 671, 0, 3850, -280, -124, -243, -529
65175, -767, -196, 668, -1470, 2730, 630, -129, -241, -535
65275, -746, -214, 685, -4480, -1190, 2520, -129, -237, -534
65375, -739, -217, 683, -3640, -700, 2730, -129, -228, -529
65475, -769, -197, 671, 12320, 12950, -9100, -133, -222, -523
65575, -757, -208, 673, -1190, 2100, 70, -142, -219, -526
65675, -759, -210, 672, -1610, 2100, 700, -144, -232, -519
65775, -754, -231, 647, 13090, -15820, -8610, -142, -241, -517
65875, -767, -194, 709, 55860, -5180, -41160, -145, -213, -511
65975, -652, -153, 691, 84280, -77350, -49980, -135, -214, -522
66075, -486, -101, 643, 54460, -52640, -84770, -121, -202, -519
66175, -588, -165, 843, 1050, 5180, -1190, -121, -198, -525
66275, -580, -168, 846, -1610, 2100, 490, -132, -208, -522
66375, -582, -167, 845, -1540, 2240, 560, -133, -201, -522
66475, -583, -166, 844, -1470, 2590, 560, -132, -207, -520
66575, -584, -165, 844, -1540, 2660, 630, -130, -201, -517
66675, -587, -160, 847, -1540, 2590, 630, -130, -201, -514
66775, -584, -158, 844, -3290, 2450, 1540, -124, -201, -522
66875, -588, -189, 837, -19740, 1680, 9100, -123, -205, -519
66975, -584, -184, 840, -7280, 1960, 2800, -124, -201, -531
67075, -583, -186, 840, -1540, 2380, 490, -126, -199, -531
67175, -582, -185, 841, -1540, 2380, 560, -124, -199, -534
67275, -583, -185, 841, -1540, 2450, 560, -135, -198, -525
67375, -583, -185, 841, -1540, 2380, 490, -124, -205, -520
67475, -584, -185, 840, -1540, 2380, 560, -126, -205, -522
67575, -582, -186, 841, -1540, 2310, 490, -127, -205, -523
67675, -581, -185, 842, -1540, 2380, 490, -123, -207, -520
67775, -582, -188, 840, -1540, 2240, 490, -130, -202, -529
67875, -579, -185, 843, -1540, 2240, 420, -126, -204, -534
67975, -589, -228, 801, 1610, 8260, -4200, -103, -162, -484
68075, -618, -224, 805, 19810, 22890, -75460, -75, -151, -475
68175, -613, -276, 801, 490, -6020, -32830, -51, -160, -486
68275, -572, -281, 805, -560, -7420, -30450, -49, -153, -480
68375, -578, -301, 806, -1750, 840, -4200, -45, -153, -487
68475, -578, -304, 809, -1540, 2380, 210, -48, -159, -487
68575, -580, -305, 808, -1540, 2520, 560, -42, -162, -481
68675, -573, -305, 811, -1540, 2450, 490, -43, -160, -493
68775, -576, -307, 812, -1680, 1890, -1260, -46, -153, -484
68875, -596, -317, 833, -5670, -8260, -21000, -9, -169, -505
68975, -502, -374, 817, 12110, 13370, -350, -18, -169, -493
69075, -542, -321, 821, 35770, 34510, 7420, -36, -148, -471
69175, -597, -274, 826, 29820, 29470, 11550, -36, -142, -468
69275, -591, -275, 808, 5740, 8260, 2800, -40, -145, -463
69375, -598, -272, 815, -490, 2870, -1960, -39, -139, -472
69475, -575, -276, 810, -2800, -3570, -1610, -34, -151, -478
69575, -570, -278, 809, -2100, 1120, -70, -45, -148, -474
69675, -612, -261, 799, -1960, 9520, 14840, -45, -129, -469
69775, -609, -231, 769, -1820, 9450, 16240, -75, -133, -447
69875, -670, -222, 822, 9940, 27930, 31360, -72, -133, -448
69975, -651, -207, 771, -1260, 3850, 1120, -75, -132, -454
70075, -665, -203, 777, -1260, 7000, 4550, -76, -129, -444
70175, -664, -201, 772, -2100, 3780, 3570, -72, -133, -450
70275, -680, -191, 769, 980, 11480, 18760, -90, -124, -448
70375, -686, -173, 761, 980, 6650, 8680, -93, -120, -445
70475, -677, -172, 757, -1540, 1890, 420, -97, -127, -442
70575, -690, -154, 757, 2450, 5460, 4970, -108, -129, -435
70675, -687, -154, 761, -1540, 2730, 980, -108, -126, -433
70775, -692, -156, 757, -1750, 2660, 490, -109, -133, -439
70875, -690, -154, 758, -1540, 2310, 420, -97, -130, -447
70975, -693, -151, 757, 70, 3920, 2520, -100, -129, -436
71075, -694, -148, 756, 140, 3780, 2380, -106, -120, -444
71175, -693, -147, 757, -1540, 2450, 630, -105, -130, -439
71275, -671, -150, 757, -2380, -560, -420, -105, -123, -442
71375, -695, -130, 780, -8890, 2520, 8610, -114, -135, -456
71475, -681, -165, 760, -33460, -18270, 26110, -109, -153, -469
71575, -592, -284, 774, -87780, -68390, 33950, -93, -195, -525
71675, -554, -202, 824, -17920, -11340, -13370, -100, -190, -519
71775, -593, -235, 844, 20370, 16100, 33250, -133, -202, -513
71875, -491, -73, 878, 40740, -61110, 36680, -174, -252, -535
71975, -465, -41, 910, 25900, -51590, 39760, -175, -277, -538
72075, -433, 12, 948, 12180, -17430, 2730, -187, -276, -523
72175, -419, 17, 942, -280, 210, 9030, -195, -282, -517
72275, -454, 15, 946, -1190, 15960, 1120, -187, -277, -517
72375, -455, 21, 935, -1540, 5670, 1120, -186, -285, -516
72475, -456, 22, 934, -1610, 4760, 210, -192, -274, -517
72575, -460, 18, 934, -2030, 4270, 910, -186, -273, -517
72675, -458, 13, 928, -3920, 2450, 3640, -192, -277, -522
72775, -476, 15, 925, -980, 13370, -2170, -189, -264, -514
72875, -485, 18, 919, -1470, 2870, 560, -189, -264, -522
72975, -481, 12, 919, -1540, 3220, 350, -196, -265, -507
73075, -499, 10, 913, -1680, 14840, -3780, -198, -256, -502
73175, -512, 11, 906, -1540, 2870, 210, -184, -261, -501
73275, -508, 18, 909, -16100, -140, 15470, -183, -268, -511
73375, -480, -23, 933, -33040, -20650, 26810, -181, -304, -532
73475, -407, -29, 949, -4340, -9870, -560, -177, -307, -540
73575, -407, -21, 959, -3010, -7840, -2870, -183, -307, -552
73675, -393, -36, 957, -1820, -2520, -1400, -178, -301, -540
73775, -405, -38, 958, -6020, 8400, 1750, -171, -295, -543
73875, -431, -48, 954, -10640, 12040, 4620, -169, -295, -546
73975, -408, -53, 954, -4130, 840, 2590, -177, -301, -538
74075, -418, -62, 971, -6090, -5530, 2030, -163, -328, -555
74175, -285, -84, 978, -13650, -41790, 8680, -159, -345, -562
74275, -269, -92, 995, -4200, -8610, 3220, -154, -340, -567
74375, -293, -93, 1001, -910, 6370, -70, -166, -342, -567
74475, -289, -70, 998, 11620, 2590, -8680, -177, -330, -559
74575, -320, -32, 1010, 28140, 6020, -21840, -183, -333, -546
74675, -266, 38, 988, 39690, -19530, -20860, -187, -331, -543
74775, -250, 10, 983, -5600, 7490, -6090, -169, -322, -543
74875, -330, -26, 1006, -16940, 37380, -9450, -160, -309, -547
74975, -348, -7, 989, -7910, 20860, -7910, -166, -306, -564
75075, -356, -70, 991, -21490, -2940, 1680, -150, -304, -574
75175, -302, -93, 984, -31220, -21350, -3570, -142, -306, -574
75275, -311, -101, 990, -2940, 0, -560, -147, -310, -567
75375, -301, -103, 995, -1540, 2520, 490, -148, -312, -574
75475, -300, -104, 992, -1470, 2730, 560, -142, -315, -564
75575, -317, -102, 990, -1400, 3220, 560, -142, -316, -561
75675, -315, -100, 990, -1470, 2660, 560, -142, -316, -570
75775, -303, -104, 993, -1890, 770, 0, -139, -304, -576
75875, -287, -106, 989, -2030, 350, -70, -148, -315, -568
75975, -307, -104, 1006, -1400, 2800, 630, -139, -316, -577
76075, -307, -108, 1001, -1610, 2730, 560, -147, -315, -571
76175, -261, -113, 990, -2730, -2870, -1120, -139, -321, -567
76275, -308, -106, 1004, 560, 11760, 3430, -141, -313, -564
76375, -315, -105, 1005, -980, 5110, 1330, -135, -315, -567
76475, -262, -111, 990, -3010, -4340, -1610, -138, -319, -580
76575, -266, -115, 1010, -1890, 840, -70, -130, -324, -568
76675, -309, -105, 1000, 0, 9730, 2660, -142, -321, -567
76775, -270, -111, 1001, -2450, -1610, -770, -133, -315, -573
76875, -272, -113, 997, -1960, 1330, 140, -139, -315, -571
76975, -268, -110, 996, -2590, -2870, -1120, -135, -319, -571
77075, -269, -114, 1003, -1540, 1960, 420, -138, -321, -567
77175, -290, -108, 992, -980, 4900, 1260, -142, -327, -570
77275, -284, -113, 1016, -1890, 1190, 280, -133, -333, -571
77375, -361, -105, 1014, 2310, 20860, 6370, -136, -322, -573
77475, -235, -115, 982, -4550, -11200, -3640, -132, -325, -573
77575, -288, -112, 1013, -420, 7420, 2100, -135, -322, -576
77675, -303, -111, 1014, -560, 6930, 1960, -145, -327, -574
77775, -229, -119, 984, -3850, -7980, -2730, -141, -322, -564
77875, -329, -107, 1012, 1330, 15680, 4620, -144, -328, -561
77975, -309, -108, 1004, 0, 9730, 2730, -138, -327, -567
78075, -267, -114, 997, -2240, -700, -420, -138, -327, -570
78175, -270, -115, 1007, -2450, -1540, -700, -135, -330, -573
78275, -292, -112, 1007, -140, 8820, 2520, -133, -322, -574
78375, -251, -117, 996, -2380, -1400, -700, -132, -321, -580
78475, -280, -111, 998, -210, 8680, 2450, -139, -319, -573
78575, -271, -114, 993, -2310, -700, -420, -135, -327, -564
78675, -282, -109, 999, -1190, 4060, 1050, -139, -327, -562
78775, -290, -111, 999, -1260, 3640, 910, -139, -324, -571
78875, -267, -112, 997, -1820, 1260, 140, -144, -321, -567
78975, -293, -110, 992, -1260, 3640, 840, -141, -325, -567
79075, -279, -112, 1005, -1540, 2310, 560, -135, -322, -577
79175, -270, -112, 989, -1890, 1120, 70, -138, -325, -573
79275, -241, -116, 988, -3430, -6020, -2030, -136, -330, -573
79375, -322, -106, 1007, 420, 11620, 3360, -117, -330, -579
79475, -267, -112, 987, -2800, -3150, -1190, -97, -331, -580
79575, -259, -109, 988, -2660, -2800, -1120, -94, -337, -582
79675, -321, -113, 1010, -140, 9030, 2590, -97, -345, -585
79775, -237, -117, 985, -3640, -7420, -2520, -93, -334, -589
79875, -251, -113, 985, -3430, -6160, -2100, -93, -343, -598
79975, -309, -110, 1009, -70, 8960, 2590, -87, -342, -597
80075, -253, -112, 989, -2870, -3780, -1610, -90, -340, -595
80175, -261, -114, 989, -2870, -3290, -1120, -90, -334, -586
80275, -297, -110, 999, -70, 9240, 2730, -102, -339, -585
80375, -286, -111, 996, -1680, 1820, 350, -109, -336, -586
80475, -288, -110, 997, -1750, 1680, 350, -129, -328, -568
80575, -290, -112, 996, -1890, 910, 70, -135, -324, -573
80675, -284, -109, 998, -1470, 2730, 630, -141, -328, -576
80775, -278, -111, 997, -2170, -210, -280, -138, -324, -576
80875, -268, -164, 985, -11900, -20090, 280, -123, -343, -583
80975, -214, -104, 1029, 350, -52360, -23100, -129, -379, -595
81075, -37, -108, 1009, 9660, -66430, -840, -130, -384, -594
81175, -82, -115, 1034, -1540, 2450, 560, -130, -376, -588
81275, -77, -110, 1037, -1470, 2380, 560, -129, -387, -580
81375, -66, -122, 1033, -1330, 2310, 840, -129, -387, -586
81475, -51, -123, 1035, -1680, 1610, 560, -124, -388, -589
81575, -91, -112, 1034, -1470, 2800, 560, -129, -388, -592
81675, -74, -117, 1035, -1540, 2450, 560, -127, -381, -597
81775, -69, -122, 1032, -1610, 2520, 630, -132, -385, -598
81875, -106, -113, 1033, -1400, 2660, 630, -127, -379, -589
81975, -54, -121, 1035, -1610, 1610, 560, -123, -382, -582
82075, -90, -113, 1033, -1260, 2100, 840, -124, -384, -582
82175, -69, -116, 1035, -1540, 2590, 560, -124, -384, -589
82275, -94, -114, 1033, -1470, 2940, 630, -117, -385, -591
82375, -67, -117, 1035, -1540, 2240, 560, -123, -381, -594
82475, -84, -114, 1034, -1540, 2520, 560, -123, -384, -592
82575, -69, -116, 1035, -1540, 2240, 490, -129, -381, -597
82675, -84, -115, 1028, -1470, 2590, 560, -132, -403, -586
82775, 142, 5, 938, 39060, -19110, 32830, -160, -366, -574
82875, -470, -125, 991, -19530, 244230, -8190, -166, -250, -523
82975, -558, -38, 874, 33530, 175210, -25550, -195, -202, -468
83075, -811, -166, 622, 35280, 104580, -76160, -165, -157, -429
83175, -783, -123, 669, -6300, 15050, -28210, -171, -154, -436
83275, -735, -55, 709, 8820, -6020, 2730, -159, -145, -442
83375, -785, -85, 651, 13790, 7280, 8400, -169, -148, -435
83475, -806, -68, 676, 140, 8330, 3010, -169, -135, -445
83575, -775, -34, 681, 140, 2800, 210, -160, -132, -447
83675, -793, -68, 655, 3920, 3430, -6300, -153, -145, -439
83775, -799, -49, 663, 13160, 7000, 2450, -159, -144, -441
83875, -784, -79, 633, -700, 2380, 840, -177, -130, -429
83975, -814, -26, 670, 12740, 21770, 10780, -171, -127, -439
84075, -812, -33, 639, 840, 4620, -910, -177, -123, -436
84175, -810, -41, 637, -4130, 3570, 2450, -183, -130, -433
84275, -812, -35, 635, -5600, 2100, 3640, -184, -129, -435
84375, -806, -34, 642, -2800, 2800, 2450, -184, -133, -430
84475, -811, -35, 637, -840, 3290, 700, -180, -133, -423
84575, -813, -35, 633, -840, 3010, 490, -181, -138, -424
84675, -812, -33, 635, 1820, 3430, -1190, -175, -129, -421
84775, -819, -32, 628, 3430, 3150, -2520, -181, -127, -433
84875, -809, -30, 640, 1400, 2380, -1050, -177, -126, -435
84975, -811, -28, 638, -700, 3430, 210, -186, -123, -430
85075, -823, -31, 622, -1260, 3570, 420, -184, -132, -427
85175, -818, -30, 628, -2100, 2660, 1050, -183, -129, -426
85275, -805, -29, 644, -2730, 2170, 1540, -183, -126, -424
85375, -822, -31, 624, -1960, 3430, 910, -183, -126, -429
85475, -819, -31, 626, -1890, 2870, 910, -175, -129, -424
85575, -811, -29, 636, -2100, 2310, 980, -175, -120, -427
85675, -814, -30, 633, -2800, 2730, 1470, -177, -123, -432
85775, -813, -31, 633, -2310, 2660, 1190, -180, -127, -435
85875, -818, -31, 626, -1470, 2940, 770, -181, -127, -429
85975, -810, -30, 637, -2100, 2520, 1190, -190, -127, -438
86075, -814, -27, 633, -2380, 3010, 1610, -183, -121, -427
86175, -818, -28, 629, -2800, 2660, 1400, -178, -135, -426
86275, -817, -30, 629, -1890, 2450, 700, -183, -141, -427
86375, -812, -29, 635, -1820, 2030, 210, -175, -132, -423
86475, -816, -28, 631, -1540, 2590, 490, -180, -124, -436
86575, -815, -31, 636, 490, 2590, -1120, -181, -123, -438
86675, -820, -33, 624, -630, 3010, 210, -190, -127, -421
86775, -813, -27, 635, -1190, 3010, 1680, -181, -132, -427
86875, -818, -28, 628, -1190, 2240, 350, -178, -135, -427
86975, -810, -27, 637, -1470, 3150, 1050, -184, -136, -412
87075, -819, -29, 625, -2030, 3360, 1400, -190, -133, -427
87175, -819, -26, 626, -2450, 2800, 1330, -180, -130, -420
87275, -815, -28, 631, -3290, 2450, 1820, -186, -133, -433
87375, -815, -27, 630, -2520, 2660, 1260, -184, -124, -427
87475, -818, -29, 627, -2310, 2800, 1330, -181, -135, -438
87575, -818, -26, 629, -2450, 2170, 1470, -178, -130, -429
87675, -809, -27, 638, -2660, 2520, 2170, -192, -132, -433
87775, -818, -25, 627, -4480, 2730, 2590, -180, -135, -430
87875, -814, -25, 632, -2100, 2520, 1120, -190, -142, -432
87975, -822, -27, 622, -3430, 2800, 2240, -183, -135, -429
88075, -817, -28, 628, -3220, 2240, 1400, -195, -132, -435
88175, -810, -27, 637, -1610, 3080, 770, -186, -136, -441
88275, -813, -26, 633, -1750, 2450, 840, -187, -135, -436
88375, -816, -26, 629, -1680, 2590, 770, -184, -144, -429
88475, -817, -29, 628, -2520, 2800, 1400, -196, -136, -429
88575, -818, -26, 628, -1890, 2590, 560, -189, -132, -433
88675, -821, -28, 624, -1960, 2450, 350, -184, -141, -430
88775, -815, -29, 631, -1960, 2100, 350, -183, -142, -430
88875, -820, -23, 624, -1890, 2870, 1260, -184, -135, -433
88975, -818, -33, 627, -5740, 2730, 4200, -186, -133, -442
89075, -816, -28, 630, -3150, 2100, 1680, -184, -132, -436
89175, -816, -29, 629, -2240, 1960, 280, -189, -136, -439
89275, -811, -26, 636, -1540, 2450, 490, -190, -145, -432
89375, -815, -29, 630, -1190, 2870, 630, -183, -139, -436
89475, -825, -29, 618, -1330, 2380, 280, -190, -144, -429
89575, -810, -29, 637, -1330, 1610, 70, -189, -142, -430
89675, -810, -29, 637, -1540, 2310, 560, -193, -141, -432
89775, -815, -27, 631, -1680, 2800, 840, -187, -133, -436
89875, -820, -28, 623, -1610, 2520, 1050, -189, -142, -439
89975, -817, -29, 628, -1610, 1960, 280, -183, -145, -436
90075, -809, -28, 639, -1680, 1820, 280, -184, -141, -439
90175, -820, -28, 627, -2240, 2940, 980, -189, -147, -435
90275, -817, -30, 628, -2660, 2380, 840, -187, -145, -438
90375, -817, -32, 628, -3500, 1960, 630, -180, -147, -433
90475, -812, -35, 633, -2940, 2520, 2030, -181, -148, -426
90575, -817, -31, 628, -1400, 2730, 1400, -190, -153, -435
90675, -813, -30, 634, -1330, 2100, 490, -186, -148, -441
90775, -819, -31, 627, -1400, 2520, 630, -190, -154, -441
90875, -812, -29, 638, -2170, 1750, 840, -187, -145, -438
90975, -812, -26, 635, -3080, 2030, 1470, -186, -145, -436
91075, -812, -37, 633, -2800, 2870, 1960, -187, -151, -442
91175, -819, -26, 629, -980, 3080, 1470, -187, -154, -432
91275, -806, -32, 643, -1610, 1820, 490, -190, -151, -426
91375, -813, -32, 632, -1540, 3080, 1610, -187, -153, -430
91475, -822, -30, 623, -1330, 3010, 560, -189, -147, -439
91575, -818, -29, 628, -1470, 1890, 280, -186, -151, -445
91675, -816, -25, 634, -2380, 1190, -210, -187, -147, -438
91775, -810, -48, 638, 1470, 2450, -2520, -187, -151, -429
91875, -820, -37, 627, 7000, 3010, -6790, -186, -139, -429
91975, -809, -32, 639, 5670, 2030, -6090, -180, -148, -432
92075, -813, -30, 636, -34370, 1680, 25340, -193, -166, -442
92175, -850, -87, 643, -31360, -9660, -980, -123, -159, -457
92275, -690, -114, 692, -490, -41160, -98000, -127, -157, -466
92375, -750, -201, 678, -11060, 350, 1190, -126, -154, -474
92475, -759, -207, 680, -2310, 2450, 1120, -127, -159, -471
92575, -749, -200, 686, -980, 1540, 630, -123, -160, -469
92675, -746, -201, 688, -1540, 2240, 560, -129, -163, -462
92775, -745, -200, 689, -1470, 2520, 560, -127, -157, -471
92875, -750, -201, 684, -1540, 2730, 560, -127, -163, -463
92975, -751, -200, 684, -1540, 2590, 560, -129, -160, -460
93075, -742, -200, 693, -1470, 2310, 560, -130, -163, -466
93175, -752, -201, 682, -1540, 2730, 630, -127, -153, -465
93275, -750, -200, 685, -1540, 2520, 630, -135, -153, -471
93375, -741, -201, 693, -1400, 2170, 490, -124, -157, -472
93475, -743, -198, 693, -1540, 2590, 630, -127, -157, -463
93575, -752, -201, 683, -1610, 3010, 630, -129, -159, -454
93675, -750, -200, 686, -1610, 2660, 560, -132, -162, -465
93775, -751, -199, 685, -1540, 2450, 560, -115, -163, -459
93875, -754, -201, 681, -1400, 2450, 490, -135, -162, -462
93975, -737, -195, 705, -1120, 2240, 350, -123, -165, -468
94075, -762, -204, 671, -2030, 3780, 630, -132, -156, -474
94175, -753, -199, 683, -1400, 2590, 560, -127, -153, -466
94275, -748, -200, 688, -1750, 3150, 630, -126, -159, -468
94375, -754, -199, 682, -1750, 3290, 630, -127, -159, -465
94475, -755, -201, 679, -1890, 3010, 630, -121, -165, -465
94575, -739, -201, 694, -1470, 2380, 630, -132, -166, -462
94675, -776, -214, 663, -9170, 21280, -6510, -123, -153, -454
94775, -753, -198, 660, -2100, -12880, 10220, -132, -160, -469
94875, -742, -216, 679, -4060, -3850, 4900, -114, -154, -451
94975, -789, -222, 642, -5110, 7420, -2100, -115, -145, -460
95075, -759, -225, 681, -3290, -3710, 2590, -132, -159, -472
95175, -635, -198, 735, 18690, -31710, 12600, -154, -160, -457
95275, -894, -144, 581, -28630, 27650, 13790, -141, -168, -459
95375, -936, -255, 491, -73990, 16310, 29400, -148, -183, -468
95475, -682, -188, 742, 25830, -26670, -2310, -153, -166, -447
95575, -823, -124, 622, -5530, 9520, 2800, -145, -165, -453
95675, -794, -186, 603, -37870, 10080, 22750, -144, -157, -445
95775, -839, -230, 647, -14140, 45080, 7140, -177, -162, -435
95875, -831, -102, 597, 38570, 980, 41160, -192, -150, -435
95975, -770, 20, 697, -8260, -2940, -3570, -180, -132, -450
96075, -820, 23, 622, 18900, 2030, -17500, -177, -126, -444
96175, -808, -17, 634, 2030, 2660, -3500, -181, -130, -444
96275, -819, -33, 638, -280, 2310, -910, -181, -132, -450
96375, -838, -16, 629, -1960, 3500, 2310, -165, -142, -466
96475, -774, -33, 694, -46340, -45640, -3080, -151, -169, -489
96575, -737, -126, 716, -910, 6090, 5110, -153, -169, -489
96675, -734, -133, 719, -980, 2240, 210, -153, -169, -490
96775, -734, -132, 719, -1260, 2450, 140, -148, -174, -498
96875, -734, -133, 716, -1610, 2590, 630, -154, -172, -487
96975, -740, -132, 713, -1330, 2730, 420, -151, -162, -487
97075, -727, -147, 715, -350, 2100, 210, -163, -159, -477
97175, -745, -29, 661, 34230, 39830, 11060, -204, -142, -448
97275, -837, -50, 628, 560, 40460, 38360, -192, -139, -444
97375, -822, -8, 625, 21910, 8190, -12530, -190, -124, -438
97475, -829, -6, 615, 17010, 16590, -14490, -183, -115, -429
97575, -851, -23, 574, 4060, 16730, -5180, -184, -117, -424
97675, -836, -17, 608, -4060, -7140, 2660, -184, -120, -427
97775, -854, -30, 573, -3150, 6370, 560, -183, -123, -411
97875, -845, -32, 583, 4480, 21140, -4830, -181, -115, -409
97975, -873, -30, 550, 6510, 16660, -5740, -178, -109, -388
98075, -892, -30, 508, 4620, 24360, -5530, -174, -108, -378
98175, -893, -47, 500, -1890, 22540, -13580, -156, -97, -385
98275, -899, -79, 500, -9940, 770, -28490, -123, -79, -387
98375, -866, -114, 530, -7770, -4760, -40810, -85, -93, -409
98475, -862, -297, 507, -10710, -6230, -24290, -58, -99, -414
98575, -815, -244, 563, -15750, -13160, -13790, -66, -108, -424
98675, -797, -268, 584, 10220, -27720, 4690, -78, -123, -447
98775, -743, -175, 675, 27090, -43470, 39690, -142, -147, -454
98875, -774, -116, 629, 42840, 26530, 39410, -186, -132, -423
98975, -833, -48, 667, 30520, 39060, 28910, -180, -132, -418
99075, -810, -27, 638, -11760, 1260, 6440, -186, -136, -427
99175, -811, -45, 636, -13860, 1820, 6650, -180, -138, -429
99275, -813, -34, 635, -4270, 2100, 1680, -184, -136, -423
99375, -814, -21, 633, -5110, 1610, 3010, -187, -154, -432
99475, -789, -69, 651, -18620, -7350, -2380, -174, -154, -427
99575, -801, -36, 652, -19740, 7770, -12390, -172, -172, -441
99675, -813, -144, 635, -76440, -3220, 33250, -174, -178, -454
99775, -788, -92, 658, 27160, 4200, -6090, -174, -168, -450
99875, -799, -32, 681, -840, 14560, 15540, -172, -174, -478
99975, -817, -96, 593, -48230, -3850, 26460, -171, -160, -481
100075, -801, -93, 652, 20160, 1400, -24150, -160, -136, -472
100175, -783, -46, 654, 31990, 8890, -21280, -163, -130, -466
100275, -788, -18, 671, 490, -5110, -6650, -165, -162, -483
100375, -748, -143, 663, -46270, -8470, 19390, -154, -169, -480
100475, -787, -110, 665, -1610, 9240, 16730, -165, -162, -475
100575, -794, -79, 666, 14700, 9940, 0, -174, -166, -478
100675, -785, -84, 664, -6930, 1190, 2240, -172, -166, -481
100775, -782, -83, 667, -9310, 560, 3150, -171, -165, -490
100875, -784, -100, 667, -14560, 490, 6370, -162, -172, -493
100975, -784, -101, 663, -7420, 1540, 2450, -165, -168, -487
101075, -783, -95, 670, 1680, 3360, -2520, -168, -178, -483
101175, -789, -93, 659, -2380, 3570, 1050, -169, -177, -481
101275, -790, -107, 656, -13230, 1890, 6090, -166, -178, -477
101375, -790, -98, 658, -1050, 3010, 1050, -168, -180, -477
101475, -784, -105, 664, -2940, 2240, 840, -163, -178, -480
101575, -784, -101, 667, -560, 2520, 420, -159, -174, -492
101675, -781, -104, 667, -1470, 2170, 210, -172, -174, -487
101775, -787, -101, 663, -1400, 2730, 840, -168, -181, -490
101875, -786, -103, 662, -1890, 2450, 560, -165, -174, -492
101975, -788, -102, 661, -1750, 2730, 840, -166, -183, -489
102075, -784, -104, 665, -1680, 2380, 350, -157, -183, -480
102175, -785, -102, 664, -1260, 2590, 630, -160, -177, -490
102275, -784, -103, 665, -1400, 2450, 420, -160, -181, -480
102375, -787, -102, 663, -1540, 2660, 700, -163, -174, -493
102475, -785, -103, 663, -1610, 2520, 490, -160, -174, -492
102575, -785, -103, 664, -1470, 2520, 560, -165, -168, -492
102675, -785, -103, 664, -1540, 2450, 490, -163, -177, -490
102775, -785, -102, 664, -1470, 2590, 630, -166, -178, -484
102875, -786, -103, 662, -1610, 2520, 560, -171, -181, -483
102975, -786, -103, 663, -1540, 2590, 630, -162, -181, -484
103075, -785, -103, 664, -1540, 2520, 560, -163, -178, -484
103175, -785, -103, 664, -1540, 2520, 560, -165, -180, -481
103275, -785, -103, 664, -1540, 2520, 560, -165, -172, -481
103375, -786, -102, 663, -1540, 2520, 630, -166, -175, -490
103475, -785, -103, 663, -1540, 2520, 560, -166, -175, -490
103575, -786, -103, 663, -1540, 2520, 560, -166, -186, -487
103675, -785, -103, 664, -1540, 2520, 560, -166, -177, -483
103775, -785, -103, 663, -1540, 2520, 560, -159, -184, -484
103875, -785, -103, 664, -1540, 2520, 560, -171, -177, -483
103975, -783, -111, 662, -1400, 2520, 770, -175, -181, -481
104075, -921, -62, 629, 35700, -2450, -350, -156, -223, -508
104175, -860, -59, 879, -14350, -133770, 33460, -195, -342, -507
104275, -322, 191, 896, 62720, -82040, 26600, -217, -408, -483
104375, -110, 259, 882, 58660, -46340, 14630, -217, -390, -468
104475, -343, 350, 1032, 17640, -19040, -34860, -222, -400, -462
104575, -161, 313, 975, -3080, -19110, 30310, -217, -426, -453
104675, -156, 311, 969, 350, -15120, 26180, -220, -439, -451
104775, -186, 295, 944, -4760, 700, 6230, -229, -439, -469
104875, -160, 292, 960, -3990, 11690, -700, -216, -430, -465
104975, -210, 305, 973, -4620, 13790, -12390, -213, -421, -471
105075, -197, 293, 975, -3360, 9520, -6370, -217, -415, -466
105175, -248, 305, 976, -1540, 10360, -3990, -207, -412, -469
105275, -187, 286, 946, 1050, 2310, 7000, -217, -417, -469
105375, -270, 311, 975, -420, 6790, -6090, -217, -414, -462
105475, -234, 296, 959, -1120, 3920, 1540, -219, -409, -462
105575, -250, 300, 965, -1400, 1960, 1750, -222, -406, -456
105675, -269, 308, 973, -700, 4270, -210, -217, -415, -468
105775, -251, 298, 960, -1400, 5740, 1540, -216, -411, -462
105875, -252, 310, 957, -1960, 4690, 2240, -216, -414, -460
105975, -242, 302, 941, -770, 3710, 1330, -222, -412, -460
106075, -249, 312, 957, -1190, 2800, -1260, -214, -415, -465
106175, -249, 301, 951, -1470, 3500, 1750, -222, -412, -456
106275, -257, 298, 953, -1400, 4620, -2520, -219, -403, -457
106375, -261, 302, 960, -3080, 1960, -420, -208, -408, -453
106475, -276, 287, 953, -2450, 6230, -5390, -213, -402, -450
106575, -285, 292, 962, -3150, 4970, -3850, -210, -390, -454
106675, -271, 286, 950, -1540, 3710, -140, -211, -400, -457
106775, -293, 295, 963, -7070, 11060, -15750, -205, -393, -466
106875, -307, 261, 956, -3010, 5810, -8470, -216, -381, -459
106975, -316, 267, 958, -1260, 3990, -2310, -210, -385, -462
107075, -300, 255, 946, -2450, 3360, -560, -210, -376, -453
107175, -318, 266, 958, -4200, 2100, -1470, -207, -385, -454
107275, -308, 270, 954, -3710, 1960, 840, -205, -384, -457
107375, -318, 271, 955, -1890, 2100, -770, -201, -385, -466
107475, -312, 262, 960, -1540, 3570, -840, -205, -382, -462
107575, -313, 257, 958, -1260, 2730, -770, -211, -384, -459
107675, -311, 251, 949, -980, 2170, 0, -207, -375, -475
107775, -317, 255, 951, -1750, 3010, -1400, -208, -385, -462
107875, -316, 261, 958, -2450, 3010, -980, -207, -376, -466
107975, -322, 273, 960, -1750, 2940, 490, -207, -387, -453
108075, -332, 255, 964, -1540, 4900, -140, -204, -379, -453
108175, -251, 206, 923, -1190, 4900, -560, -196, -355, -460
108275, -451, 282, 987, -9310, 21840, -45780, -193, -357, -453
108375, -361, 232, 942, -1190, 5530, 2590, -199, -352, -460
108475, -377, 230, 934, -910, 2870, 840, -199, -351, -465
108575, -368, 231, 932, -700, 1330, 1470, -199, -351, -460
108675, -391, 240, 950, -1400, 2870, 1190, -193, -351, -456
108775, -365, 241, 938, -560, 2170, 3850, -198, -349, -456
108875, -354, 236, 935, -560, 2450, 1960, -201, -351, -462
108975, -377, 234, 942, 280, 2940, -560, -198, -357, -450
109075, -374, 237, 938, -630, 2730, -560, -193, -358, -453
109175, -379, 226, 928, -910, 2380, -560, -201, -361, -456
109275, -382, 241, 940, -2590, 3010, -840, -202, -358, -462
109375, -385, 238, 937, -1680, 3220, -560, -201, -354, -462
109475, -386, 240, 937, -1610, 3290, 0, -201, -351, -459
109575, -362, 228, 929, -1820, 3010, 2170, -205, -354, -453
109675, -381, 236, 940, -1820, 2310, 350, -198, -360, -453
109775, -367, 229, 935, -1750, 1820, 1890, -196, -358, -451
109875, -384, 226, 934, -1470, 1120, -560, -196, -358, -460
109975, -374, 236, 932, -1120, 2940, 1190, -199, -351, -460
110075, -379, 245, 944, -1400, 3220, 560, -196, -342, -460
110175, -371, 222, 931, -280, 2380, 2310, -198, -349, -462
110275, -385, 230, 938, -1610, 2870, -1190, -205, -348, -463
110375, -370, 233, 931, -2100, 3360, 630, -204, -360, -457
110475, -381, 244, 939, -2450, 3080, 70, -198, -349, -447
110575, -372, 230, 934, -2380, 2030, 1470, -195, -355, -456
110675, -381, 223, 935, -1820, 2100, -490, -198, -354, -451
110775, -386, 227, 933, -2240, 1820, -770, -187, -355, -463
110875, -382, 237, 940, -2870, 2660, 420, -187, -354, -459
110975, -376, 229, 942, -980, 3150, 630, -202, -348, -468
111075, -381, 222, 937, -840, 2380, 140, -192, -349, -465
111175, -386, 226, 937, -1190, 2940, -210, -204, -354, -457
111275, -386, 232, 938, -1400, 2520, -140, -193, -358, -453
111375, -383, 222, 937, -1400, 2520, 490, -196, -349, -453
111475, -373, 223, 938, -1680, 2380, 490, -192, -351, -454
111575, -391, 233, 950, -3500, 3080, -490, -193, -354, -454
111675, -371, 227, 933, -2240, 4480, 70, -187, -346, -457
111775, -379, 223, 931, -1400, 3850, -630, -201, -340, -463
111875, -396, 233, 951, -1610, 2030, 0, -204, -343, -465
111975, -374, 215, 933, -1540, 770, 2170, -196, -343, -462
112075, -389, 220, 935, -1400, 1260, -560, -196, -345, -468
112175, -396, 224, 942, -2310, 980, -560, -193, -348, -465
112275, -387, 221, 943, -2030, 3640, 980, -196, -349, -462
112375, -407, 242, 950, -980, 2590, 4410, -195, -355, -459
112475, -346, 220, 912, 1820, 770, 11830, -201, -346, -460
112575, -366, 225, 934, -490, 3010, 1890, -204, -355, -463
112675, -365, 225, 931, -1610, 2380, 700, -205, -348, -465
112775, -390, 230, 950, -3150, 1470, -2520, -199, -348, -465
112875, -381, 247, 946, -4270, 1330, -70, -198, -348, -466
112975, -382, 238, 940, -2450, 2590, 0, -193, -348, -454
113075, -358, 242, 940, -1120, 4410, 2450, -198, -349, -457
113175, -373, 206, 927, 0, 3920, 140, -196, -355, -459
113275, -386, 232, 940, -3430, 3150, 490, -193, -354, -456
113375, -375, 243, 944, -3710, 4130, 140, -189, -352, -460
113475, -389, 223, 940, -1820, 3850, -700, -196, -349, -474
113575, -395, 213, 926, -1400, 3360, -840, -190, -349, -466
113675, -383, 233, 937, -2660, 3150, 70, -193, -345, -466
113775, -383, 221, 933, -1050, 3360, -1610, -198, -336, -457
113875, -387, 219, 937, -1190, 2170, -1820, -199, -349, -459
113975, -387, 220, 935, -1400, 1750, -350, -196, -346, -451
114075, -391, 221, 936, -1680, 1750, 560, -189, -349, -456
114175, -387, 216, 933, -770, 3010, 840, -190, -345, -466
114275, -382, 214, 935, -1260, 2520, 70, -189, -346, -462
114375, -396, 216, 936, -1610, 2870, -2030, -204, -337, -468
114475, -398, 219, 938, -1330, 2520, -630, -195, -342, -471
114575, -387, 210, 930, -1680, 2730, 630, -190, -337, -466
114675, -391, 225, 943, -2520, 2940, -210, -199, -348, -465
114775, -385, 220, 935, -1330, 2450, 630, -187, -334, -465
114875, -395, 210, 933, -910, 2380, 350, -193, -348, -460
114975, -393, 220, 939, -1680, 2590, 910, -199, -340, -462
115075, -393, 227, 939, -1960, 2450, 630, -201, -342, -468
115175, -396, 215, 935, -980, 3220, 980, -198, -345, -480
115275, -395, 216, 938, -1120, 3360, 630, -201, -346, -468
115375, -387, 214, 930, -910, 3430, 350, -198, -339, -468
115475, -390, 228, 937, -1540, 3150, -280, -199, -345, -463
115575, -380, 213, 921, 70, 4060, -1470, -190, -340, -459
115675, -406, 221, 931, 1750, 6860, -6650, -192, -333, -450
115775, -428, 206, 905, 4900, 13020, -10850, -189, -313, -453
115875, -467, 229, 912, 1050, 14840, -16870, -195, -300, -451
115975, -459, 200, 861, -70, 27580, -13650, -193, -276, -457
116075, -576, 136, 754, 12180, 42700, -16590, -201, -247, -451
116175, -701, 188, 812, -8960, 55020, -25690, -198, -201, -451
116275, -792, 137, 752, -9870, 46480, -20930, -196, -187, -454
116375, -838, 93, 747, -23030, 11270, -30240, -186, -180, -454
116475, -726, 55, 706, 9100, -4060, 7910, -183, -174, -451
116575, -727, 62, 686, 16240, 11970, -14350, -169, -144, -454
116675, -809, -21, 648, -10220, 23170, -26950, -156, -126, -451
116775, -827, -39, 628, -5530, 11550, -3990, -148, -115, -456
116875, -806, -39, 639, -4270, 4130, 490, -157, -118, -454
116975, -816, -35, 632, 210, 2870, -1050, -159, -123, -462
117075, -810, -41, 642, -3920, 280, 4480, -163, -129, -466
117175, -807, -24, 644, -2170, 1050, 3430, -165, -129, -457
117275, -810, -29, 639, -4200, 3010, 3150, -169, -129, -454
117375, -809, -32, 641, -2590, 2310, 840, -162, -124, -453
117475, -811, -30, 641, -1820, 2450, 490, -150, -127, -450
117575, -813, -32, 632, -3080, 2520, 1610, -159, -129, -457
117675, -806, -30, 642, -1960, 2590, 770, -156, -121, -466
117775, -813, -33, 634, -1820, 2590, 350, -156, -120, -457
117875, -802, -30, 646, -1190, 2590, -70, -160, -121, -463
117975, -813, -33, 634, -1470, 2310, 490, -154, -124, -456
118075, -802, -31, 648, -1540, 2170, 630, -160, -126, -454
118175, -814, -33, 634, -2030, 3220, 770, -163, -127, -460
118275, -803, -30, 646, -1680, 2380, 280, -154, -121, -459
118375, -814, -36, 633, -3150, 3990, 700, -157, -124, -451
118475, -816, -36, 630, -1890, 2450, 140, -148, -112, -450
118575, -801, -33, 648, -1260, 2240, -560, -159, -121, -460
118675, -811, -40, 634, -1540, 2240, -560, -159, -120, -454
118775, -803, -36, 647, -1190, 2100, 280, -156, -126, -459
118875, -819, -38, 627, -1470, 2870, 490, -157, -129, -459
118975, -810, -38, 638, -1470, 2520, 490, -156, -124, -454
119075, -813, -40, 633, -1470, 2450, 490, -154, -129, -448
119175, -805, -36, 644, -1400, 2660, 700, -162, -126, -453
119275, -821, -33, 626, -1400, 2870, 1330, -157, -129, -457
119375, -800, -35, 652, -1610, 2310, 1050, -157, -121, -463
119475, -819, -34, 627, -1190, 3220, 1190, -153, -121, -457
119575, -810, -30, 640, -1680, 1470, 140, -163, -118, -465
119675, -810, -36, 632, -2030, 2030, -490, -150, -123, -456
119775, -806, -48, 638, -2730, 700, -420, -166, -118, -462
119875, -818, -38, 634, -2380, -1120, 1540, -160, -129, -466
119975, -797, -39, 659, -2730, -910, 1260, -153, -127, -460
120075, -797, -38, 657, -3150, -420, 560, -160, -141, -462
120175, -800, -44, 647, -4970, -70, 2100, -168, -130, -478
120275, -793, -39, 664, -1680, 1470, 840, -156, -129, -481
120375, -801, -44, 651, -1330, 1400, -350, -162, -132, -489
120475, -783, -45, 672, -1890, 910, -70, -166, -129, -483
120575, -789, -43, 668, -1330, 2660, 350, -163, -133, -487
120675, -790, -44, 666, -770, 3500, 700, -165, -136, -474
120775, -795, -39, 662, -1050, 5460, 980, -160, -135, -463
120875, -779, -40, 641, -2100, 8050, 350, -150, -129, -463
120975, -806, -46, 634, -1470, 7770, 1260, -163, -129, -460
121075, -809, -38, 639, 420, 4830, 980, -147, -130, -468
121175, -809, -40, 638, -1540, 3220, 840, -156, -117, -456
121275, -806, -42, 642, -1540, 3080, 560, -154, -121, -462
121375, -812, -31, 637, -1890, 3010, 490, -154, -123, -462
121475, -814, -41, 634, 560, 3150, -210, -157, -129, -459
121575, -814, -40, 634, -700, 1820, 350, -160, -133, -459
121675, -800, -41, 652, -1610, 350, 1260, -159, -123, -450
121775, -808, -40, 639, -1750, 3780, 1260, -159, -126, -456
121875, -801, -40, 649, -1610, 2380, 700, -154, -120, -454
121975, -815, -41, 632, -1610, 2800, 630, -166, -124, -459
122075, -808, -40, 641, -1540, 2380, 560, -163, -120, -465
122175, -812, -44, 634, -1540, 3080, 630, -160, -121, -462
122275, -803, -30, 653, -2310, 3010, 2100, -165, -120, -456
122375, -816, -45, 626, -3010, 5740, 2240, -160, -124, -460
122475, -801, -37, 640, 3290, -350, -3010, -153, -126, -450
122575, -812, -34, 642, -1680, -700, 840, -159, -120, -460
122675, -803, -39, 652, -3920, 840, 2520, -157, -124, -454
122775, -801, -48, 635, -2590, 4830, -1190, -162, -121, -456
122875, -819, -42, 625, -770, 4200, 980, -162, -114, -456
122975, -797, -36, 653, -1120, 2170, 630, -156, -126, -465
123075, -811, -39, 635, -1540, 2590, 560, -153, -126, -465
123175, -797, -31, 652, -3920, 3010, 2450, -160, -139, -460
123275, -819, -44, 629, -12880, 4270, 8120, -156, -126, -456
123375, -813, -47, 633, -10710, 1540, 5390, -153, -132, -450
123475, -793, -51, 651, 10640, 3990, -7490, -159, -127, -451
123575, -820, -32, 630, 36330, 4340, -28910, -153, -117, -444
123675, -805, -42, 645, 4200, 2380, -4620, -153, -120, -450
123775, -819, -40, 635, -2240, 840, 1750, -151, -114, -442
123875, -792, -45, 652, -2940, 70, 2590, -156, -117, -450
123975, -814, -45, 631, -2380, 2730, 1400, -156, -121, -445
124075, -804, -41, 645, -1610, 2450, 630, -157, -123, -447
124175, -815, -43, 631, -1610, 2800, 630, -157, -123, -450
124275, -798, -40, 652, -1680, 2940, 700, -156, -118, -442
124375, -803, -35, 654, -1610, 0, 1120, -156, -121, -444
124475, -789, -42, 662, -420, 1470, -70, -159, -126, -444
124575, -822, -44, 619, -2170, 4550, 1540, -157, -123, -445
124675, -800, -39, 650, -1540, 2520, 560, -159, -114, -454
124775, -817, -43, 628, -1610, 2940, 560, -147, -129, -453
124875, -797, -39, 654, -1540, 2170, 630, -154, -129, -454
124975, -810, -42, 637, -1540, 2800, 560, -159, -127, -442
125075, -799, -40, 651, -1190, 2240, 350, -154, -130, -439
125175, -813, -41, 635, -910, 2660, 70, -160, -124, -444
125275, -797, -38, 654, -1400, 2310, 490, -156, -124, -445
125375, -815, -43, 632, -1960, 2870, 910, -163, -120, -445
125475, -797, -39, 654, -1540, 2170, 630, -160, -123, -453
125575, -813, -42, 635, -1610, 2870, 560, -160, -121, -456
125675, -802, -40, 648, -1540, 2450, 560, -154, -127, -444
125775, -813, -42, 635, -1540, 2800, 560, -162, -127, -447
125875, -802, -40, 647, -1540, 2380, 560, -157, -123, -441
125975, -809, -41, 640, -1540, 2590, 560, -165, -121, -438
126075, -803, -40, 648, -1540, 2450, 560, -154, -121, -447
126175, -810, -42, 638, -1540, 2730, 560, -157, -132, -441
126275, -806, -40, 644, -1540, 2590, 560, -154, -124, -454
126375, -809, -42, 640, -1540, 2590, 560, -154, -121, -451
126475, -804, -41, 645, -1540, 2450, 560, -153, -124, -454
126575, -808, -41, 640, -1540, 2590, 560, -156, -132, -453
126675, -806, -41, 644, -1540, 2520, 560, -166, -124, -442
126775, -809, -41, 640, -1540, 2590, 560, -157, -126, -451
126875, -805, -41, 644, -1540, 2450, 560, -159, -126, -441
126975, -807, -41, 642, -1540, 2590, 560, -162, -126, -441
127075, -806, -41, 644, -1540, 2520, 560, -151, -126, -445
127175, -808, -41, 641, -1540, 2590, 560, -157, -120, -450
127275, -806, -41, 642, -1540, 2590, 560, -160, -124, -453
127375, -807, -41, 642, -1540, 2590, 560, -154, -126, -450
127475, -806, -40, 644, -1540, 2520, 560, -165, -123, -445
127575, -807, -41, 642, -1540, 2590, 560, -157, -120, -438
127675, -806, -41, 643, -1540, 2590, 630, -160, -132, -447
127775, -809, -39, 639, -1540, 2450, 490, -157, -127, -450
127875, -800, -38, 652, -630, 4340, 2450, -162, -130, -442
127975, -822, -36, 621, -770, 4690, 2100, -162, -126, -453
128075, -806, -35, 642, -1680, 2240, 280, -160, -123, -457
128175, -805, -39, 646, -2100, 910, -280, -165, -126, -451
128275, -808, -38, 640, -1540, 2660, 560, -162, -126, -448
128375, -806, -43, 643, -1960, 1120, -70, -166, -126, -444
128475, -802, -37, 647, -2380, 2520, 840, -160, -121, -445
128575, -791, -45, 662, -14700, -1330, 9870, -168, -133, -448
128675, -788, -48, 662, -6580, 560, 2240, -160, -142, -448
128775, -814, -45, 635, 2310, 3640, -3150, -165, -133, -460
128875, -795, -55, 665, -4900, 2450, 4060, -168, -126, -460
128975, -814, -31, 628, -1540, 7070, 3430, -154, -118, -460
129075, -807, -43, 637, -1610, 5460, 700, -162, -127, -468
129175, -806, -37, 644, -1330, 2660, 280, -160, -123, -451
129275, -814, -40, 632, -1540, 2730, 560, -156, -126, -453
129375, -800, -33, 652, -1820, 2450, 840, -147, -133, -450
129475, -801, -31, 653, 28070, 4130, -21280, -156, -124, -444
129575, -801, -42, 639, 5810, 2240, -3010, -157, -111, -448
129675, -828, -28, 620, 840, 3990, 910, -157, -118, -454
129775, -798, -29, 658, -1470, 2660, 1190, -157, -111, -457
129875, -796, -47, 639, -6090, 560, 420, -147, -127, -463
129975, -810, -46, 632, -6300, 1750, 3150, -148, -138, -445
130075, -812, -41, 637, -2030, 2520, 980, -169, -121, -439
130175, -814, -41, 633, -1610, 2800, 560, -163, -123, -445
130275, -806, -39, 643, -1540, 2380, 560, -156, -114, -447
130375, -808, -40, 640, -1540, 2590, 560, -151, -120, -445
130475, -805, -39, 644, -1540, 2450, 560, -157, -117, -441
130575, -811, -40, 636, -1540, 2660, 560, -166, -108, -447
130675, -808, -40, 640, -1540, 2450, 560, -159, -109, -451
130775, -811, -40, 637, -1540, 2660, 560, -160, -117, -445
130875, -806, -39, 642, -1540, 2450, 560, -157, -118, -453
130975, -810, -40, 638, -1540, 2590, 560, -157, -118, -444
131075, -807, -40, 642, -1540, 2520, 560, -154, -120, -448
131175, -810, -40, 637, -1540, 2590, 560, -153, -123, -451
131275, -808, -40, 641, -1540, 2520, 560, -159, -118, -445
131375, -819, -47, 626, -1330, 2380, 490, -151, -112, -442
131475, -768, -29, 687, 630, -560, -560, -163, -120, -447
131575, -785, -39, 669, -3220, 4270, 1190, -160, -112, -447
131675, -857, -48, 577, -2800, 5740, 910, -165, -115, -447
131775, -790, -37, 663, -1540, 2240, 630, -160, -112, -450
131875, -834, -45, 607, -1680, 3710, 490, -154, -120, -439
131975, -791, -37, 661, -1470, 1680, 630, -157, -121, -442
132075, -821, -43, 624, -1610, 2940, 560, -163, -115, -441
132175, -792, -38, 660, -1470, 1960, 560, -157, -112, -447
132275, -816, -41, 631, -1610, 3010, 560, -153, -118, -447
132375, -799, -38, 652, -1540, 2310, 560, -160, -117, -453
132475, -817, -42, 630, -1610, 2940, 560, -159, -109, -451
132575, -802, -39, 648, -1540, 2310, 560, -157, -121, -451
132675, -807, -41, 635, -1540, 2660, 560, -159, -120, -450
132775, -802, -39, 649, -1540, 2380, 560, -154, -114, -441
132875, -812, -40, 636, -1610, 2800, 560, -162, -117, -441
132975, -806, -40, 643, -1540, 2450, 560, -147, -114, -447
133075, -811, -40, 637, -1540, 2660, 560, -147, -118, -444
133175, -804, -39, 645, -1540, 2450, 560, -154, -102, -451
133275, -810, -40, 639, -1540, 2660, 560, -157, -117, -456
133375, -806, -40, 644, -1540, 2520, 560, -154, -120, -448
133475, -810, -40, 638, -1540, 2660, 560, -160, -118, -448
133575, -806, -40, 643, -1540, 2520, 560, -165, -117, -445
133675, -808, -40, 640, -1540, 2590, 560, -156, -123, -445
133775, -806, -40, 643, -1540, 2520, 560, -159, -117, -445
133875, -809, -40, 640, -1540, 2590, 560, -148, -111, -450
133975, -808, -40, 641, -1540, 2590, 560, -148, -109, -439
134075, -808, -40, 640, -1540, 2590, 560, -159, -115, -445
134175, -806, -40, 643, -1540, 2520, 560, -154, -117, -447
134275, -808, -40, 640, -1540, 2520, 560, -156, -117, -454
134375, -808, -40, 641, -1540, 2590, 560, -157, -120, -442
134475, -808, -40, 640, -1540, 2590, 560, -159, -118, -445
134575, -807, -40, 642, -1540, 2520, 560, -154, -118, -444
134675, -807, -40, 641, -1540, 2520, 560, -150, -118, -445
134775, -807, -40, 641, -1540, 2590, 560, -159, -115, -438
134875, -808, -40, 640, -1540, 2590, 560, -156, -109, -438
134975, -808, -40, 641, -1540, 2590, 560, -157, -114, -445
135075, -808, -40, 641, -1540, 2590, 560, -163, -108, -448
135175, -807, -40, 641, -1540, 2590, 560, -159, -108, -448
135275, -807, -40, 641, -1540, 2590, 560, -171, -118, -448
135375, -807, -40, 641, -1540, 2590, 560, -153, -106, -441
135475, -808, -40, 641, -1540, 2520, 560, -151, -118, -448
135575, -807, -40, 641, -1540, 2590, 560, -162, -112, -450
135675, -807, -40, 641, -1540, 2590, 560, -150, -120, -451
135775, -807, -40, 641, -1540, 2590, 560, -150, -108, -447
135875, -807, -40, 641, -1540, 2590, 560, -159, -114, -451
135975, -808, -40, 641, -1540, 2590, 560, -166, -114, -457
136075, -807, -40, 641, -1540, 2520, 560, -156, -118, -448
136175, -806, -40, 642, -1400, 2450, 700, -163, -120, -441
136275, -808, -39, 639, -1540, 2730, 770, -151, -112, -442
136375, -806, -37, 643, -1680, 2590, 1330, -156, -109, -450
136475, -809, -38, 639, -2380, 2730, 1540, -156, -121, -442
136575, -810, -40, 637, -2730, 2660, 1680, -154, -115, -442
136675, -809, -38, 638, -770, 2170, 840, -156, -114, -450
136775, -804, -38, 643, 910, 1890, -350, -162, -114, -453
136875, -811, -29, 641, -1960, 3080, 3010, -165, -109, -447
136975, -803, -31, 647, -1750, 2730, 910, -156, -117, -439
137075, -814, -30, 634, -1960, 3080, 700, -165, -115, -438
137175, -793, -33, 644, -1120, 2450, 210, -166, -118, -438
137275, -813, -37, 633, -1890, 3290, 560, -156, -115, -448
137375, -805, -40, 642, -2660, 2870, 1680, -159, -120, -445
137475, -810, -20, 640, -2310, 3430, 1820, -159, -112, -448
137575, -802, -34, 642, 560, 1190, 140, -159, -111, -453
137675, -794, -27, 652, 490, 1680, 840, -163, -117, -448
137775, -821, -17, 637, -280, 3010, 2450, -162, -114, -453
137875, -812, -15, 645, -1750, 2170, 70, -165, -109, -444
137975, -803, -22, 656, -4620, 2660, -2380, -157, -121, -441
138075, -805, -44, 628, -7630, 3850, 0, -159, -121, -442
138175, -788, -33, 663, -1050, 1960, -70, -154, -118, -445
138275, -820, -39, 625, -1540, 3220, 490, -157, -118, -442
138375, -806, -39, 643, -1610, 2380, 560, -159, -118, -453
138475, -817, -39, 628, -560, 2660, 210, -156, -120, -453
138575, -796, -33, 655, -1260, 2240, 1750, -160, -111, -448
138675, -821, -33, 625, -1190, 2940, 1330, -159, -112, -453
138775, -807, -36, 640, -2590, 2940, -350, -162, -123, -445
138875, -818, -38, 627, -1750, 2870, -280, -157, -121, -444
138975, -795, -36, 655, -1540, 2100, 350, -157, -118, -442
139075, -816, -37, 630, -1470, 3010, 630, -153, -120, -450
139175, -804, -35, 646, -1540, 2450, 560, -156, -114, -453
139275, -817, -36, 628, -1610, 2730, 490, -154, -114, -447
139375, -800, -36, 651, -2170, 1540, -210, -160, -115, -453
139475, -827, -42, 621, -4340, 3360, -1680, -163, -124, -444
139575, -794, -67, 656, -4340, 1050, -3710, -162, -130, -433
139675, -814, -48, 633, -1330, 2800, 140, -165, -124, -445
139775, -812, -51, 635, -1260, 2520, 700, -162, -127, -439
139875, -804, -47, 645, -1190, 2310, 700, -157, -124, -441
139975, -806, -53, 643, -1470, 2870, 420, -160, -120, -441
140075, -799, -61, 648, -1400, 2520, 1190, -162, -123, -442
140175, -818, -26, 637, -1400, 3570, 5810, -160, -118, -450
140275, -806, -45, 636, -8260, 2730, 6790, -165, -114, -456
140375, -812, -41, 635, -630, 3220, 1050, -157, -112, -450
140475, -809, -40, 637, -1190, 2870, 1190, -163, -126, -450
140575, -810, -41, 638, -1680, 2520, 350, -163, -124, -444
140675, -811, -41, 636, -1330, 2800, 840, -162, -127, -441
140775, -812, -39, 636, -1680, 2240, 630, -159, -123, -447
140875, -804, -41, 644, -1470, 2240, 560, -166, -120, -445
140975, -812, -40, 634, -1540, 2800, 140, -160, -118, -442
141075, -819, -50, 626, -4060, 1330, -2730, -165, -120, -450
141175, -793, -55, 656, -12740, -700, 7070, -171, -121, -454
141275, -808, -60, 643, -10360, 1190, 4550, -165, -121, -451
141375, -814, -56, 631, 8750, 4970, -3290, -163, -130, -448
141475, -812, -42, 636, 14560, 4200, -7490, -163, -124, -444
141575, -804, -33, 646, 4970, 2870, -2240, -148, -123, -444
141675, -804, -42, 645, -1470, 1890, 840, -162, -120, -445
141775, -811, -42, 636, -1330, 2380, 630, -157, -120, -451
141875, -809, -41, 639, -1680, 2520, 490, -169, -121, -447
141975, -810, -47, 636, -1400, 2520, 560, -159, -120, -454
142075, -808, -40, 640, -1120, 2870, 630, -165, -117, -454
142175, -812, -45, 634, -1540, 2310, 70, -160, -123, -450
142275, -804, -43, 644, -1610, 2240, 140, -169, -117, -447
142375, -809, -34, 638, -1680, 2100, 280, -160, -120, -445
142475, -806, -59, 643, -1470, 2590, -700, -160, -123, -448
142575, -812, -39, 634, -1190, 3220, 420, -165, -123, -445
142675, -812, -50, 635, -1610, 2520, 560, -168, -123, -445
142775, -808, -55, 637, -1610, 2100, 490, -163, -120, -453
142875, -813, -43, 636, -910, 2380, 1120, -162, -121, -454
142975, -804, -36, 646, -1400, 2660, 4130, -160, -115, -453
143075, -817, -44, 629, -1890, 2940, 490, -160, -127, -438
143175, -802, -42, 645, -980, 2660, 1260, -160, -117, -442
143275, -812, -41, 634, -1470, 2940, 700, -159, -120, -441
143375, -807, -41, 641, -1540, 2450, 630, -162, -114, -445
143475, -811, -39, 637, -1330, 2940, 910, -159, -114, -445
143575, -809, -40, 639, -1470, 2520, 630, -157, -115, -456
143675, -812, -39, 635, -1540, 2590, 560, -163, -112, -454
143775, -810, -40, 638, -1610, 2450, 560, -162, -115, -448
143875, -811, -40, 636, -1610, 2450, 700, -174, -118, -451
143975, -810, -40, 637, -1610, 2660, 490, -163, -117, -442
144075, -811, -40, 637, -1260, 2730, 770, -159, -126, -442
144175, -809, -40, 638, -1120, 2660, 840, -159, -118, -442
144275, -807, -38, 641, -1680, 2380, 420, -156, -111, -445
144375, -811, -40, 635, -1540, 2590, 560, -156, -120, -447
144475, -811, -39, 637, -1540, 2590, 560, -156, -117, -448
144575, -812, -40, 635, -1470, 2590, 560, -157, -112, -453
144675, -809, -38, 638, -1470, 2520, 560, -160, -118, -450
144775, -811, -39, 637, -1470, 2590, 490, -157, -118, -447
144875, -803, -40, 646, -1820, 1960, 280, -163, -108, -442
144975, -811, -38, 636, -1400, 3010, 770, -159, -120, -448
145075, -813, -41, 634, -1540, 2590, 770, -153, -121, -447
145175, -813, -41, 632, -1750, 2660, 420, -160, -115, -448
145275, -809, -40, 639, -1890, 2310, 210, -154, -123, -450
145375, -811, -42, 637, -2520, 2170, 70, -160, -115, -454
145475, -807, -42, 641, -3290, 2380, 1330, -157, -120, -453
145575, -809, -39, 640, -8190, 1750, 4130, -159, -123, -447
145675, -806, -57, 642, -14070, 1330, 8050, -160, -136, -447
145775, -811, -47, 636, -3080, 2450, 1680, -163, -129, -442
145875, -812, -47, 636, -1470, 2380, 1120, -163, -123, -435
145975, -806, -43, 643, -1050, 2590, 1400, -157, -124, -442
146075, -810, -44, 638, -1120, 3220, 910, -159, -130, -441
146175, -806, -44, 643, -1540, 2450, 560, -157, -124, -445
146275, -811, -44, 636, -1540, 2660, 560, -162, -127, -451
146375, -808, -44, 639, -1540, 2450, 560, -165, -120, -445
146475, -811, -44, 636, -1610, 2450, 490, -168, -124, -444
146575, -807, -44, 640, -1540, 2520, 560, -168, -127, -442
146675, -810, -42, 638, -1890, 2380, 140, -165, -130, -438
146775, -807, -46, 641, -1820, 2660, 210, -166, -118, -450
146875, -813, -45, 632, -1820, 2520, 210, -160, -124, -444
146975, -804, -49, 646, -1960, 2030, 210, -153, -127, -447
147075, -809, -45, 639, -1050, 2940, 1120, -168, -127, -444
147175, -802, -44, 646, -1400, 2450, 630, -159, -118, -453
147275, -812, -44, 634, -1470, 2870, 560, -165, -129, -451
147375, -809, -44, 639, -1470, 2520, 560, -174, -118, -445
147475, -813, -43, 634, -1540, 2660, 560, -166, -127, -439
147575, -806, -44, 643, -1540, 2380, 560, -159, -123, -439
147675, -810, -44, 636, -1540, 2660, 560, -166, -132, -439
147775, -807, -44, 641, -1470, 2520, 560, -157, -121, -444
147875, -812, -44, 634, -1540, 2660, 560, -162, -127, -447
147975, -806, -43, 642, -1540, 2450, 560, -168, -123, -445
148075, -810, -43, 638, -1540, 2520, 560, -166, -127, -444
148175, -806, -43, 642, -1610, 2520, 560, -165, -129, -448
148275, -810, -44, 636, -1750, 2660, 350, -157, -126, -441
148375, -813, -47, 633, -1330, 3080, -1960, -169, -135, -435
148475, -803, -53, 646, -2800, 840, -1470, -160, -129, -433
148575, -810, -57, 637, -4270, 560, 350, -160, -130, -441
148675, -806, -55, 641, -1330, 2520, 350, -160, -126, -438
148775, -800, -58, 652, -4830, 1890, 1750, -159, -133, -445
148875, -809, -61, 638, -2450, 2660, 910, -157, -130, -450
148975, -807, -56, 640, -490, 2800, 280, -160, -127, -444
149075, -806, -56, 642, -3500, 1820, 3290, -165, -135, -451
149175, -798, -58, 652, -5740, 1960, 5530, -166, -129, -445
149275, -811, -50, 633, 700, 3150, 1260, -153, -124, -442
149375, -806, -44, 643, 3780, 3850, -1470, -165, -130, -441
149475, -812, -45, 634, -1400, 2800, 560, -148, -124, -448
149575, -807, -46, 641, -1540, 2450, 560, -159, -133, -445
149675, -810, -44, 637, -1470, 2520, 630, -165, -118, -450
149775, -807, -45, 641, -1540, 2450, 630, -165, -129, -438
149875, -813, -44, 633, -1750, 2380, 490, -159, -126, -451
149975, -812, -45, 635, -2520, 2660, 630, -162, -130, -441
150075, -810, -49, 639, -5950, 1260, 2100, -157, -133, -439
150175, -795, -53, 654, -6020, 910, 2800, -157, -129, -436
150275, -811, -52, 634, -140, 3430, 490, -162, -135, -438
150375, -799, -47, 651, -1050, 2520, 490, -156, -126, -444
150475, -817, -46, 627, -1540, 2870, 560, -165, -129, -451
150575, -799, -46, 650, -1470, 2170, 560, -162, -115, -448
150675, -813, -47, 634, -1540, 2660, 560, -165, -124, -444
150775, -800, -46, 650, -1540, 2310, 560, -163, -129, -447
150875, -814, -47, 633, -1540, 2800, 560, -166, -126, -447
150975, -806, -46, 642, -1470, 2520, 560, -163, -139, -439
151075, -812, -47, 635, -1540, 2730, 560, -153, -130, -439
151175, -803, -46, 646, -1540, 2380, 560, -157, -132, -450
151275, -807, -46, 640, -1540, 2520, 560, -162, -139, -442
151375, -805, -46, 643, -1540, 2520, 560, -165, -124, -445
151475, -811, -47, 636, -1540, 2660, 560, -160, -123, -453
151575, -809, -47, 639, -1540, 2590, 560, -153, -124, -451
151675, -808, -46, 640, -1540, 2590, 560, -165, -127, -444
151775, -806, -46, 642, -1540, 2520, 560, -163, -138, -438
151875, -809, -47, 638, -1540, 2660, 560, -154, -133, -439
151975, -808, -47, 640, -1540, 2590, 560, -162, -126, -442
152075, -808, -46, 640, -1540, 2590, 560, -156, -118, -451
152175, -806, -47, 642, -1540, 2520, 560, -160, -132, -445
152275, -807, -46, 641, -1540, 2520, 560, -156, -124, -450
152375, -807, -46, 640, -1540, 2590, 560, -160, -124, -448
152475, -808, -47, 640, -1540, 2590, 560, -165, -121, -451
152575, -808, -46, 639, -1540, 2590, 560, -171, -127, -442
152675, -807, -46, 640, -1540, 2520, 560, -157, -129, -436
152775, -808, -47, 640, -1540, 2520, 560, -160, -129, -436
152875, -807, -46, 641, -1470, 2520, 560, -159, -124, -444
152975, -808, -47, 640, -1540, 2590, 560, -160, -130, -438
153075, -807, -47, 640, -1540, 2590, 560, -154, -127, -438
153175, -808, -46, 640, -1540, 2590, 560, -159, -126, -447
153275, -807, -47, 640, -1540, 2520, 560, -163, -127, -444
153375, -808, -46, 640, -1540, 2590, 560, -163, -124, -453
153475, -808, -47, 640, -1540, 2520, 560, -175, -130, -447
153575, -808, -47, 640, -1540, 2520, 560, -169, -150, -448
153675, -808, -46, 640, -1540, 2520, 560, -166, -154, -433
153775, -809, -48, 639, -1540, 2590, 560, -157, -145, -439
153875, -805, -32, 646, 12810, 2800, -7140, -145, -148, -409
153975, -792, -34, 659, 7770, 2940, -4830, -109, -138, -381
154075, -824, -45, 619, -5670, 3920, 3710, -85, -100, -369
154175, -806, -39, 644, -840, 2730, 140, -73, -118, -324
154275, -820, -41, 625, -1470, 2940, 560, -25, -120, -240
154375, -799, -41, 650, -1540, 2100, 700, 57, -154, -300
154475, -809, -37, 638, -1470, 2520, 770, 63, -157, -358
154575, -807, -40, 643, -1680, 2240, 280, 84, -132, -387
154675, -815, -41, 632, -1540, 2660, 630, 88, -121, -406
154775, -811, -42, 636, -1610, 2660, 560, 84, -157, -429
154875, -809, -40, 638, -1540, 2520, 560, 73, -192, -450
154975, -809, -41, 639, -1750, 2450, 700, 99, -196, -474
155075, -808, -40, 640, -1610, 2450, 700, 144, -166, -466
155175, -810, -41, 636, -1400, 2660, 420, 136, -205, -484
155275, -808, -40, 639, -1470, 2590, 490, 166, -228, -543
155375, -809, -40, 639, -1470, 2590, 490, 208, -252, -588
155475, -802, -39, 646, -1820, 2310, 840, 183, -243, -580
155575, -810, -40, 637, -1120, 2870, 70, 165, -241, -582
155675, -819, -41, 625, -1820, 2660, 490, 133, -237, -588
155775, -812, -43, 635, -1960, 2940, 700, 141, -216, -574
155875, -813, -40, 633, -840, 2730, 140, 130, -165, -498
155975, -800, -41, 650, -1610, 2240, 700, 12, -138, -453
156075, -805, -34, 643, -1470, 2380, 700, -82, -159, -448
156175, -808, -45, 639, -1540, 2590, 560, -142, -172, -454
156275, -814, -41, 632, -1540, 2730, 560, -169, -145, -456
156375, -813, -42, 634, -1540, 2730, 560, -166, -132, -468
156475, -809, -41, 639, -1540, 2520, 560, -163, -138, -468
156575, -807, -41, 641, -1540, 2520, 560, -168, -126, -469
156675, -813, -42, 634, -1540, 2660, 560, -159, -129, -472
156775, -811, -41, 636, -1540, 2660, 560, -178, -129, -460
156875, -810, -41, 638, -1540, 2520, 560, -163, -132, -460
156975, -807, -41, 640, -1540, 2520, 560, -160, -135, -457
157075, -807, -42, 642, -1610, 2520, 490, -169, -130, -454
157175, -811, -41, 635, -1260, 2800, 350, -163, -124, -457
157275, -813, -41, 634, -1330, 2520, 420, -162, -126, -463
157375, -813, -38, 634, -910, 2660, 350, -163, -127, -456
157475, -809, -39, 639, -1890, 2520, 980, -160, -129, -463
157575, -809, -45, 637, -2240, 2450, 1050, -165, -124, -459
157675, -805, -44, 641, -1610, 2520, 560, -157, -126, -462
157775, -811, -40, 636, -1960, 2730, 910, -156, -123, -460
157875, -807, -41, 642, -1470, 2520, 490, -159, -132, -454
157975, -815, -30, 633, -1610, 2380, -70, -160, -133, -457
158075, -796, -56, 654, -6090, 1190, -1120, -160, -136, -456
158175, -815, -56, 629, -980, 3220, -2100, -159, -127, -451
158275, -816, -52, 629, 2310, 3150, -630, -157, -127, -453
158375, -809, -47, 638, -1400, 2870, 490, -159, -129, -456
158475, -814, -45, 630, -1400, 2800, 280, -162, -123, -459
158575, -801, -47, 650, -3010, 1400, -840, -160, -127, -454
158675, -812, -51, 637, -490, 3290, 1470, -159, -126, -441
158775, -805, -44, 640, -840, 2660, 1400, -159, -130, -436
158875, -807, -43, 641, -1610, 2590, 350, -160, -130, -442
158975, -812, -46, 636, -3780, 2100, 1540, -157, -127, -453
159075, -796, -51, 654, -9240, 980, 6160, -156, -127, -445
159175, -820, -48, 625, -1960, 3080, 1820, -153, -129, -453
159275, -805, -49, 644, -1470, 2660, 560, -154, -136, -463
159375, -815, -49, 630, -1540, 2800, 560, -153, -123, -453
159475, -799, -47, 651, -1470, 2240, 630, -156, -121, -445
159575, -807, -48, 641, -1540, 2450, 560, -150, -129, -438
159675, -803, -47, 645, -1540, 2520, 560, -162, -127, -436
159775, -813, -48, 633, -1540, 2800, 560, -157, -124, -426
159875, -803, -47, 646, -1470, 2380, 560, -162, -120, -439
159975, -809, -48, 639, -1540, 2590, 560, -160, -129, -438
160075, -804, -47, 645, -1540, 2520, 560, -157, -127, -442
160175, -811, -48, 636, -1540, 2730, 560, -160, -118, -447
160275, -808, -47, 639, -1540, 2590, 560, -168, -123, -445
160375, -809, -48, 639, -1540, 2590, 560, -160, -126, -439
160475, -805, -47, 643, -1540, 2520, 560, -159, -130, -427
160575, -806, -48, 642, -1540, 2520, 560, -159, -130, -436
160675, -807, -47, 640, -1540, 2590, 560, -162, -130, -435
160775, -808, -47, 639, -1540, 2590, 560, -160, -130, -439
160875, -809, -48, 639, -1540, 2660, 560, -159, -120, -442
160975, -807, -47, 641, -1540, 2520, 560, -157, -121, -441
161075, -807, -48, 640, -1540, 2590, 560, -153, -120, -444
161175, -807, -47, 642, -1540, 2520, 560, -165, -132, -438
161275, -808, -48, 639, -1540, 2590, 560, -166, -126, -433
161375, -807, -47, 640, -1540, 2520, 560, -162, -127, -430
161475, -808, -47, 640, -1540, 2590, 560, -159, -123, -435
161575, -807, -47, 641, -1540, 2520, 560, -162, -127, -438
161675, -808, -47, 639, -1540, 2590, 560, -160, -133, -436
161775, -807, -48, 640, -1540, 2590, 560, -165, -124, -441
161875, -808, -48, 640, -1540, 2590, 560, -166, -126, -448
161975, -807, -47, 641, -1540, 2590, 560, -165, -123, -442
162075, -808, -48, 640, -1540, 2590, 560, -171, -130, -435
162175, -808, -47, 640, -1540, 2590, 560, -157, -133, -435
162275, -808, -48, 640, -1540, 2590, 560, -157, -133, -438
162375, -808, -48, 641, -1540, 2590, 560, -165, -127, -441
162475, -807, -48, 640, -1540, 2590, 560, -162, -130, -436
162575, -808, -48, 640, -1540, 2590, 560, -160, -118, -435
162675, -807, -48, 640, -1540, 2590, 560, -160, -130, -442
162775, -808, -47, 640, -1540, 2590, 560, -156, -121, -447
162875, -807, -48, 640, -1540, 2590, 560, -165, -129, -439
162975, -807, -47, 641, -1540, 2590, 560, -162, -136, -438
163075, -807, -48, 640, -1540, 2590, 560, -153, -130, -430
163175, -808, -47, 640, -1540, 2520, 560, -171, -132, -432
163275, -808, -48, 640, -1540, 2520, 560, -157, -129, -436
163375, -808, -47, 640, -1540, 2590, 560, -153, -118, -442
163475, -807, -48, 640, -1540, 2520, 560, -153, -132, -438
163575, -808, -48, 640, -1540, 2590, 560, -171, -126, -445
163675, -808, -47, 640, -1540, 2590, 560, -157, -124, -444
163775, -808, -47, 640, -1540, 2590, 560, -162, -129, -435
163875, -807, -48, 640, -1540, 2590, 560, -163, -129, -438
163975, -808, -48, 640, -1540, 2590, 560, -148, -135, -426
164075, -808, -48, 640, -1540, 2590, 560, -163, -132, -432
164175, -808, -48, 640, -1540, 2590, 560, -157, -132, -439
164275, -808, -48, 640, -1540, 2590, 560, -159, -126, -435
164375, -808, -48, 640, -1540, 2590, 560, -156, -126, -439
164475, -808, -48, 640, -1540, 2590, 560, -163, -126, -438
164575, -807, -48, 640, -1540, 2590, 560, -162, -120, -442
164675, -807, -48, 640, -1540, 2590, 560, -160, -126, -444
164775, -808, -47, 640, -1540, 2590, 560, -159, -135, -436
164875, -807, -48, 640, -1540, 2590, 560, -165, -123, -429
164975, -807, -48, 640, -1540, 2590, 560, -157, -126, -430
165075, -808, -48, 640, -1540, 2590, 560, -151, -133, -436
165175, -808, -48, 640, -1540, 2590, 560, -156, -127, -436
165275, -808, -48, 640, -1540, 2590, 560, -163, -123, -433
165375, -807, -48, 640, -1540, 2590, 560, -162, -127, -442
165475, -808, -48, 640, -1540, 2590, 560, -156, -120, -439
165575, -808, -48, 640, -1540, 2590, 560, -160, -129, -444
165675, -799, -45, 654, -1540, 3360, 560, -159, -127, -430
165775, -844, -52, 589, -1820, 3850, 560, -156, -133, -429
165875, -761, -38, 704, -1470, 1540, 700, -162, -130, -441
165975, -803, -42, 653, -2030, 6510, 840, -157, -126, -441
166075, -720, -76, 748, -2380, 8750, 770, -156, -129, -429
166175, -776, 22, 746, -1120, 19460, 420, -156, -120, -436
166275, -787, -51, 638, -2170, 30380, -2800, -151, -111, -415
166375, -864, -88, 488, -4270, 35630, 3360, -142, -106, -411
166475, -875, -78, 503, -2870, 35770, 1890, -154, -97, -382
166575, -912, -47, 392, -3080, 38780, 2310, -144, -105, -358
166675, -960, -48, 287, -3430, 38990, 1960, -150, -100, -334
166775, -947, -41, 289, -1960, 37730, 1960, -147, -102, -310
166875, -962, -36, 223, -2310, 38920, 1680, -145, -94, -298
166975, -1043, -55, 30, -1820, 35280, 1400, -148, -103, -277
167075, -1058, -45, -33, -1750, 27370, 2380, -151, -105, -267
167175, -1052, 30, 9, -560, 18270, 1540, -154, -114, -256
167275, -931, -42, 203, -1050, 14070, 1540, -153, -115, -243
167375, -929, 2, 166, -1190, 24710, 1750, -150, -132, -220
167475, -965, -48, -6, -3500, 35210, 1330, -162, -133, -190
167575, -1047, -27, -242, -4200, 33250, 2240, -157, -142, -175
167675, -1016, -17, -187, -1400, 24570, 1050, -148, -148, -165
167775, -962, -41, -148, -2380, 20650, 1330, -153, -165, -157
167875, -960, -6, -125, -1470, 22540, 1750, -163, -162, -126
167975, -703, 9, -144, -3080, 32410, 910, -160, -195, -96
168075, -574, 4, -306, -7280, 56910, 1540, -165, -240, -57
168175, -814, 2, -615, -10850, 81900, 1960, -166, -298, -18
168275, -933, -41, -703, -7980, 73780, 770, -172, -360, 9
168375, -890, 29, -626, -3010, 67130, -2940, -184, -412, 24
168475, -994, 54, -804, -4760, 50050, -2450, -190, -421, 27
168575, -573, -43, -749, -3500, 31290, -1260, -186, -442, 37
168675, -529, -25, -934, -1540, 29890, 3150, -192, -498, 82
168775, -581, 141, -739, -10710, 140, 15470, -189, -502, 82
168875, -602, 56, -766, -3920, 4620, 2310, -193, -505, 85
168975, -607, 54, -763, 770, 2590, 490, -193, -511, 79
169075, -602, 18, -770, 2240, 3290, -2170, -201, -511, 82
169175, -605, 26, -767, -1120, 2800, 70, -199, -511, 85
169275, -605, 38, -765, -1960, 2660, 910, -198, -516, 82
169375, -605, 31, -766, -1330, 2660, 350, -186, -504, 73
169475, -605, 32, -765, -1540, 2660, 560, -189, -504, 79
169575, -605, 34, -765, -1680, 2660, 630, -190, -495, 85
169675, -605, 34, -766, -1400, 2660, 490, -190, -499, 73
169775, -605, 30, -766, -1260, 2660, 350, -195, -513, 75
169875, -607, 29, -765, -1330, 2730, 420, -195, -519, 82
169975, -605, 35, -765, -1400, 2730, 490, -199, -514, 82
170075, -605, 33, -766, -1680, 2660, 490, -195, -522, 93
170175, -605, 33, -767, -1610, 2730, 560, -208, -514, 81
170275, -604, 32, -766, -1540, 2660, 560, -192, -505, 79
170375, -604, 33, -766, -1540, 2660, 560, -195, -507, 75
170475, -604, 33, -767, -1540, 2660, 560, -189, -501, 84
170575, -605, 32, -766, -1540, 2660, 560, -186, -507, 76
170675, -604, 32, -766, -1540, 2660, 560, -195, -513, 84
170775, -604, 32, -766, -1540, 2660, 560, -196, -519, 84
170875, -605, 33, -766, -1540, 2660, 560, -202, -513, 87
170975, -604, 32, -766, -1540, 2660, 560, -201, -514, 91
171075, -604, 32, -766, -1540, 2660, 560, -199, -504, 87
171175, -605, 32, -766, -1540, 2660, 560, -195, -498, 75
171275, -604, 33, -766, -1540, 2660, 560, -190, -504, 79
171375, -604, 33, -766, -1540, 2660, 560, -184, -510, 84
171475, -604, 32, -766, -1540, 2660, 560, -195, -504, 79
171575, -604, 33, -767, -1610, 2660, 560, -198, -508, 82
171675, -604, 33, -766, -1610, 2660, 560, -190, -517, 84
171775, -604, 32, -766, -1540, 2660, 560, -202, -516, 78
171875, -604, 33, -766, -1540, 2660, 560, -192, -514, 84
171975, -604, 32, -766, -1540, 2660, 560, -198, -502, 84
172075, -604, 32, -766, -1540, 2660, 560, -186, -498, 78
172175, -604, 33, -766, -1540, 2660, 560, -187, -502, 84
172275, -604, 33, -766, -1540, 2660, 560, -190, -505, 81
172375, -604, 33, -766, -1540, 2660, 560, -196, -505, 88
172475, -605, 33, -766, -1540, 2660, 560, -195, -514, 82
172575, -604, 32, -767, -1540, 2660, 560, -205, -513, 82
172675, -604, 33, -766, -1540, 2660, 560, -201, -516, 81
172775, -604, 32, -767, -1540, 2660, 560, -202, -510, 84
172875, -605, 33, -766, -1540, 2660, 560, -198, -510, 82
172975, -604, 32, -766, -1540, 2660, 560, -195, -507, 82
173075, -604, 33, -766, -1540, 2660, 560, -196, -508, 81
173175, -604, 32, -766, -1540, 2590, 560, -201, -511, 78
173275, -604, 33, -766, -1540, 2660, 560, -201, -522, 87
173375, -604, 32, -767, -1540, 2660, 560, -195, -520, 90
173475, -604, 32, -766, -1540, 2660, 560, -204, -525, 87
173575, -604, 32, -766, -1540, 2590, 560, -210, -523, 88
173675, -604, 32, -766, -1540, 2660, 560, -208, -510, 88
173775, -604, 33, -766, -1540, 2660, 560, -193, -511, 88
173875, -604, 33, -767, -1540, 2660, 560, -195, -507, 79
173975, -604, 33, -766, -1540, 2660, 560, -199, -511, 79
174075, -604, 32, -767, -1540, 2660, 560, -201, -517, 88
174175, -604, 33, -767, -1540, 2660, 560, -204, -522, 87
174275, -604, 33, -767, -1540, 2660, 560, -205, -526, 93
174375, -604, 32, -767, -1540, 2590, 560, -217, -517, 91
174475, -604, 33, -766, -1540, 2660, 560, -205, -520, 93
174575, -604, 32, -766, -1540, 2590, 560, -205, -513, 90
174675, -604, 32, -767, -1540, 2660, 560, -199, -507, 82
174775, -604, 32, -767, -1540, 2660, 560, -204, -511, 81
174875, -604, 33, -767, -1540, 2660, 560, -202, -510, 76
174975, -607, 16, -764, 70, 2450, -1890, -202, -508, 88
175075, -601, 25, -771, -1190, 3010, 1400, -199, -519, 87
175175, -607, 41, -761, -1960, 2520, 1820, -202, -519, 94
175275, -604, 38, -765, -2450, 2450, 1470, -211, -523, 91
175375, -604, 28, -768, -1120, 2730, 140, -207, -519, 85
175475, -605, 31, -766, -1610, 2590, 700, -201, -511, 85
175575, -604, 32, -767, -1610, 2660, 560, -198, -505, 82
175675, -604, 33, -767, -1540, 2590, 630, -204, -508, 82
175775, -605, 28, -766, -1540, 2590, 490, -196, -501, 81
175875, -604, 33, -767, -1610, 2660, 630, -205, -519, 87
175975, -604, 32, -766, -1610, 2660, 630, -198, -514, 90
176075, -604, 31, -767, -1540, 2660, 490, -211, -519, 87
176175, -604, 31, -766, -1540, 2660, 560, -207, -513, 87
176275, -604, 30, -767, -1540, 2660, 490, -204, -514, 88
176375, -604, 31, -767, -1540, 2660, 560, -205, -514, 88
176475, -604, 31, -766, -1540, 2660, 560, -196, -505, 82
176575, -604, 31, -767, -1540, 2660, 560, -198, -511, 84
176675, -604, 31, -766, -1540, 2660, 560, -198, -508, 84
176775, -604, 31, -767, -1540, 2660, 560, -207, -523, 85
176875, -604, 31, -767, -1540, 2660, 560, -202, -519, 91
176975, -604, 31, -766, -1540, 2660, 560, -211, -523, 87
177075, -604, 31, -766, -1540, 2660, 560, -198, -516, 84
177175, -604, 31, -766, -1540, 2660, 560, -204, -502, 85
177275, -604, 31, -767, -1540, 2660, 560, -199, -507, 84
177375, -604, 31, -767, -1540, 2660, 560, -193, -513, 81
177475, -604, 31, -767, -1540, 2660, 560, -192, -510, 75
177575, -604, 31, -766, -1540, 2660, 560, -195, -496, 76
177675, -604, 31, -767, -1540, 2660, 560, -186, -502, 90
177775, -626, 183, -768, 23240, 2030, -20510, -124, -511, 141
177875, -561, -329, -734, 130760, 7630, -98980, -73, -513, 154
177975, -378, -585, -589, 119700, 7770, -85260, -69, -511, 150
178075, -451, -664, -562, 30240, 4690, -19530, -54, -511, 145
178175, -407, -731, -539, 13300, 2660, -11900, -45, -514, 139
178275, -452, -661, -584, -6580, 2170, 3850, -49, -514, 138
178375, -466, -637, -599, -7910, 2520, 5950, -55, -514, 139
178475, -457, -651, -592, 140, 2730, -630, -51, -514, 138
178575, -453, -658, -587, 840, 2730, -1190, -54, -520, 147
178675, -452, -660, -586, -630, 2660, -140, -58, -529, 150
178775, -455, -654, -590, -1960, 2660, 840, -55, -529, 147
178875, -454, -656, -588, -1400, 2660, 490, -63, -519, 142
178975, -455, -654, -589, -1610, 2660, 560, -51, -511, 135
179075, -454, -655, -589, -1540, 2660, 560, -46, -513, 136
179175, -455, -655, -589, -1540, 2660, 560, -49, -513, 135
179275, -455, -655, -589, -1540, 2660, 560, -49, -507, 130
179375, -454, -655, -589, -1540, 2660, 560, -48, -511, 138
179475, -454, -655, -589, -1540, 2660, 560, -52, -516, 139
179575, -454, -656, -589, -1540, 2590, 560, -54, -519, 144
179675, -455, -654, -590, -1540, 2660, 560, -55, -523, 139
179775, -455, -655, -590, -1540, 2590, 560, -46, -519, 136
179875, -454, -655, -589, -1540, 2590, 560, -43, -516, 142
179975, -455, -655, -589, -1540, 2590, 560, -49, -507, 139
180075, -455, -653, -590, -1540, 2590, 560, -51, -516, 138
180175, -456, -654, -590, -420, 2590, -280, -42, -513, 142
180275, -456, -654, -589, 630, 2940, -1330, -48, -514, 136
180375, -453, -663, -566, 2380, 4130, -2870, -55, -519, 135
180475, -523, -631, -555, -1400, 5320, 1400, -48, -531, 148
180575, -477, -685, -555, -70, 7000, 2940, -45, -547, 160
180675, -407, -689, -581, 3150, 10920, 6860, -36, -552, 168
180775, -331, -701, -640, 7910, 15680, 12740, -21, -565, 171
180875, -468, -642, -571, 8190, 8190, 12040, -12, -562, 162
180975, -421, -706, -563, -1750, 1190, 2590, -15, -561, 172
181075, -458, -645, -599, -10290, 2100, 7070, -27, -564, 172
181175, -476, -615, -613, -5600, 2520, 3990, -31, -568, 172
181275, -460, -641, -600, -700, 2590, -140, -28, -573, 181
181375, -456, -650, -594, 1610, 2730, -1890, -30, -574, 177
181475, -452, -656, -589, 840, 2660, -1190, -31, -577, 172
181575, -456, -652, -591, -630, 2660, -70, -27, -567, 175
181675, -457, -650, -593, -1960, 2660, 910, -33, -562, 175
181775, -457, -650, -593, -1540, 2660, 560, -13, -570, 172
181875, -455, -652, -592, -1400, 2660, 420, -22, -562, 172
181975, -456, -651, -592, -1610, 2660, 560, -28, -561, 174
182075, -519, -573, -620, -1400, 2660, 490, -12, -564, 177
182175, -486, -592, -659, 69440, 3710, -55720, 48, -592, 175
182275, -361, -798, -517, 127680, 6860, -99190, 85, -627, 136
182375, -51, -1007, -66, 177520, 8330, -134260, 129, -658, 70
182475, 157, -981, 199, 195790, 8680, -149800, 156, -703, -16
182575, 329, -842, 483, 202650, 10220, -153300, 171, -706, -93
182675, 565, -433, 814, 18690, 3290, -15470, 169, -699, -108
182775, 650, -349, 829, 4130, 1120, -3850, 172, -699, -112
182875, 429, -638, 670, -7560, 4200, 5320, 171, -702, -103
182975, 441, -696, 622, -13020, 2380, 8540, 181, -705, -96
183075, 452, -685, 627, -7560, 2100, 5110, 175, -702, -88
183175, 443, -696, 620, -4200, 2590, 2450, 174, -700, -84
183275, 450, -681, 630, -560, 2730, -210, 165, -705, -85
183375, 452, -677, 633, -910, 2520, 210, 175, -708, -93
183475, 450, -681, 630, -1680, 2590, 700, 181, -699, -97
183575, 449, -682, 630, -1540, 2590, 560, 181, -705, -94
183675, 449, -681, 630, -1540, 2590, 560, 178, -702, -90
183775, 450, -681, 630, -1540, 2590, 560, 189, -702, -91
183875, 450, -681, 631, -1540, 2590, 560, 180, -705, -99
183975, 450, -680, 631, -1540, 2590, 560, 181, -703, -88
184075, 449, -681, 631, -1540, 2590, 560, 184, -708, -78
184175, 450, -681, 631, -1540, 2590, 560, 186, -703, -79
184275, 450, -681, 631, -1540, 2590, 560, 181, -709, -87
184375, 389, -839, 548, 210, 2520, -420, 183, -714, -109
184475, 424, -748, 595, 97230, 8330, -67550, 169, -745, -175
184575, 544, -224, 828, 162750, 9940, -121730, 114, -765, -247
184675, 555, 159, 830, 180670, 8540, -135520, 37, -774, -295
184775, 471, 482, 751, 194110, 9870, -146510, -49, -768, -325
184875, 132, 966, 365, 135590, 4550, -104370, -106, -753, -319
184975, 74, 980, 243, 4060, 2870, -3220, -117, -744, -325
185075, 27, 1060, 125, -4550, 2660, 3080, -112, -738, -325
185175, 249, 864, 437, -14280, 1050, 9520, -105, -745, -328
185275, 255, 844, 470, -6930, 2170, 4550, -102, -754, -340
185375, 255, 848, 468, -2310, 2310, 1260, -99, -756, -339
185475, 246, 857, 454, -70, 2590, -420, -99, -753, -340
185575, 251, 851, 462, -1050, 2520, 420, -106, -751, -334
185675, 252, 852, 460, 630, 2660, -700, -103, -756, -330
185775, 243, 862, 447, 2450, 2730, -2100, -100, -757, -328
185875, 236, 868, 439, 210, 2590, -770, -105, -756, -327
185975, 238, 865, 442, -1610, 2520, 630, -108, -753, -327
186075, 241, 863, 445, -1960, 2520, 910, -114, -753, -328
186175, 240, 864, 443, -1470, 2520, 560, -106, -762, -334
186275, 240, 863, 444, -1540, 2520, 560, -103, -754, -333
186375, 239, 865, 442, -1400, 2520, 490, -102, -751, -337
186475, 240, 864, 443, -1540, 2520, 560, -112, -765, -328
186575, 240, 864, 443, -1470, 2590, 560, -97, -766, -322
186675, 240, 864, 444, -1540, 2520, 560, -96, -757, -319
186775, 240, 864, 443, -1470, 2520, 560, -97, -757, -318
186875, 240, 864, 443, -1470, 2520, 560, -96, -753, -328
186975, 239, 864, 443, -1540, 2520, 560, -105, -754, -327
187075, 240, 864, 444, -1540, 2520, 560, -103, -757, -337
187175, 240, 864, 444, -1540, 2590, 560, -106, -757, -334
187275, 240, 864, 443, -1540, 2590, 560, -102, -757, -337
187375, 240, 864, 443, -1470, 2590, 560, -106, -754, -327
187475, 240, 864, 443, -1540, 2520, 560, -105, -763, -328
187575, 240, 864, 443, -1540, 2590, 560, -108, -759, -327
187675, 240, 864, 444, -1540, 2590, 560, -102, -753, -324
187775, 240, 864, 443, -1540, 2590, 560, -105, -753, -328
187875, 240, 864, 444, -1540, 2590, 560, -118, -748, -331
187975, 240, 864, 443, -1470, 2590, 490, -96, -756, -333
188075, 240, 864, 443, -1540, 2590, 560, -109, -748, -337
188175, 240, 864, 443, -1540, 2590, 560, -106, -759, -337
188275, 240, 864, 443, -1540, 2590, 560, -94, -760, -340
188375, 240, 864, 443, -1540, 2590, 560, -97, -760, -331
188475, 240, 863, 444, -1540, 2590, 560, -99, -754, -325
188575, 242, 862, 446, -1260, 2730, 350, -114, -759, -336
188675, 236, 866, 439, -420, 2940, -210, -112, -747, -327
188775, 238, 866, 441, -1470, 2520, 490, -100, -756, -339
188875, 237, 866, 440, -1470, 2520, 490, -106, -750, -336
188975, 238, 865, 441, -1610, 2590, 560, -103, -745, -336
189075, 235, 868, 437, -1330, 2660, 350, -103, -757, -331
189175, 235, 868, 438, -1890, 2660, 840, -88, -756, -324
189275, 242, 862, 446, -2450, 2310, 1120, -99, -751, -327
189375, 239, 865, 441, -1540, 2590, 560, -99, -756, -319
189475, 240, 865, 443, -1540, 2590, 560, -97, -750, -325
189575, 240, 864, 443, -1610, 2590, 560, -112, -747, -330
189675, 242, 865, 443, -1540, 2590, 560, -100, -753, -328
189775, 275, 815, 506, 2800, 4690, -2520, -117, -747, -336
189875, 226, 902, 384, 12950, 6510, -7980, -105, -733, -339
189975, 250, 854, 462, 0, 5180, 770, -111, -738, -354
190075, 271, 842, 480, 2310, 16170, 5880, -102, -733, -364
190175, 241, 821, 423, 3920, 20860, 7000, -103, -721, -370
190275, 212, 922, 386, 4130, 24360, 9240, -103, -715, -382
190375, 246, 951, 207, -350, 8120, 4900, -106, -702, -397
190475, 203, 896, 422, -4340, 3220, -70, -109, -715, -394
190575, 223, 873, 428, -5670, 2380, 3290, -111, -717, -393
190675, 229, 872, 432, -2380, 2590, 1120, -103, -715, -396
190775, 228, 872, 432, -1610, 2660, 560, -102, -720, -393
190875, 228, 873, 431, -1540, 2660, 560, -93, -721, -390
190975, 229, 872, 432, -1540, 2590, 560, -99, -723, -387
191075, 228, 873, 432, -1540, 2590, 560, -100, -724, -379
191175, 228, 872, 431, -1540, 2590, 560, -102, -717, -394
191275, 229, 871, 433, -1470, 2660, 560, -103, -715, -384
191375, 230, 869, 437, -980, 2730, 280, -102, -709, -387
191475, 221, 890, 407, 140, 2940, -70, -108, -717, -384
191575, 233, 861, 447, -4200, 2170, 1750, -109, -712, -387
191675, 230, 870, 435, -1750, 2520, 630, -106, -718, -390
191775, 230, 871, 433, -1540, 2590, 560, -102, -723, -390
191875, 229, 872, 432, -1540, 2590, 560, -93, -730, -381
191975, 230, 871, 433, -1540, 2590, 560, -94, -726, -381
192075, 229, 872, 432, -1540, 2590, 560, -94, -723, -384
192175, 230, 871, 434, -1540, 2590, 560, -100, -711, -390
192275, 230, 872, 433, -1540, 2590, 560, -108, -717, -393
192375, 230, 871, 434, -1540, 2590, 560, -102, -717, -388
192475, 230, 871, 433, -1540, 2590, 560, -102, -712, -393
192575, 230, 871, 433, -1540, 2590, 560, -109, -726, -387
192675, 230, 872, 433, -1540, 2590, 560, -102, -732, -387
192775, 230, 871, 433, -1540, 2590, 560, -91, -735, -382
192875, 230, 871, 433, -1540, 2590, 560, -90, -727, -378
192975, 230, 871, 433, -1540, 2590, 560, -94, -723, -376
193075, 229, 872, 433, -1540, 2590, 560, -114, -715, -388
193175, 230, 871, 433, -1540, 2590, 560, -108, -720, -393
193275, 230, 871, 433, -1540, 2590, 560, -102, -729, -390
193375, 230, 871, 433, -1540, 2590, 560, -103, -717, -396
193475, 230, 871, 433, -1540, 2590, 560, -106, -723, -388
193575, 230, 872, 433, -1540, 2590, 560, -96, -721, -381
193675, 230, 871, 433, -1540, 2590, 560, -93, -721, -378
193775, 230, 871, 433, -1540, 2590, 560, -91, -720, -373
193875, 230, 872, 433, -1540, 2590, 560, -99, -726, -387
193975, 230, 871, 433, -1540, 2590, 560, -109, -720, -388
194075, 230, 871, 433, -1540, 2590, 560, -111, -720, -394
194175, 230, 871, 433, -1540, 2590, 560, -100, -727, -397
194275, 230, 871, 433, -1540, 2590, 560, -103, -724, -391
194375, 230, 871, 433, -1540, 2590, 560, -96, -723, -385
194475, 230, 871, 433, -1540, 2590, 560, -93, -724, -387
194575, 230, 871, 433, -1540, 2590, 560, -97, -729, -375
194675, 230, 871, 433, -1540, 2590, 560, -94, -727, -384
194775, 230, 871, 433, -1540, 2590, 560, -105, -717, -388
194875, 230, 871, 433, -1540, 2590, 560, -114, -715, -382
194975, 230, 871, 433, -1540, 2590, 560, -103, -715, -382
195075, 230, 871, 433, -1540, 2590, 560, -109, -714, -381
195175, 230, 871, 433, -1540, 2590, 560, -102, -717, -393
195275, 230, 872, 433, -1540, 2590, 560, -93, -727, -384
195375, 230, 871, 433, -1540, 2590, 560, -99, -726, -384
195475, 230, 871, 433, -1540, 2590, 560, -94, -726, -378
195575, 230, 871, 433, -1540, 2590, 560, -99, -724, -388
195675, 230, 871, 434, -1540, 2590, 560, -100, -715, -385
195775, 230, 871, 433, -1540, 2590, 560, -108, -721, -382
195875, 165, 952, 355, -1820, 2660, 700, -82, -709, -402
195975, 233, 880, 488, -90790, -1400, 67340, 51, -739, -394
196075, 525, 328, 735, -241710, -12950, 177730, 187, -726, -310
196175, 576, -65, 848, -248150, -10430, 182000, 258, -678, -189
196275, 516, -426, 722, -227780, -7560, 166950, 255, -630, -70
196375, 446, -720, 603, -204330, -6370, 152320, 214, -603, 36
196475, -76, -1176, -83, -40110, 5180, 34510, 238, -636, 7
196575, 169, -1011, 242, 110600, 8470, -84910, 265, -691, -48
196675, 357, -853, 479, 115010, 6020, -85680, 265, -708, -103
196775, 468, -671, 660, 117810, 6510, -88620, 256, -730, -172
196875, 555, -378, 777, 161560, 7420, -119980, 183, -753, -292
196975, 574, 75, 833, 192710, 10640, -143500, 81, -759, -366
197075, 377, 633, 632, 208600, 15050, -155610, -33, -760, -408
197175, 215, 880, 425, 210840, 11550, -157500, -147, -726, -381
197275, -72, 973, 77, 207620, 9450, -149240, -238, -676, -328
197375, -304, 882, -289, 199710, 10080, -152390, -301, -588, -240
197475, -478, 639, -576, 209020, 15750, -155050, -313, -489, -135
197575, -563, 410, -695, 203070, 9520, -153790, -255, -394, -19
197675, -580, -263, -766, 204750, 6090, -156660, -142, -321, 52
197775, -506, -563, -658, 204610, 5740, -158060, 33, -270, 78
197875, -369, -797, -451, 205870, 9940, -156940, 193, -271, 42
197975, -167, -990, -256, 203070, 11060, -158480, 328, -288, -49
198075, 244, -954, 271, 207410, 8610, -157990, 402, -352, -207
198175, 360, -787, 511, 210840, 10710, -157150, 391, -405, -391
198275, 490, -513, 697, 211470, 10850, -157010, 280, -468, -543
198375, 550, 116, 806, 213290, 12320, -157500, 97, -480, -619
198475, 505, 480, 754, 212940, 15540, -157290, -91, -453, -588
198575, 302, 696, 585, 210070, 15470, -158550, -241, -375, -468
198675, -16, 985, 83, 214060, 12110, -157010, -255, -330, -228
198775, -229, 933, -191, 213710, 12390, -159250, -169, -318, -49
198875, -406, 783, -448, 213290, 14490, -158690, -9, -382, 27
198975, -586, 226, -747, 210630, 13370, -159320, 121, -498, 37
199075, -597, -139, -809, 209930, 13160, -161000, 222, -654, -12
199175, -540, -447, -731, 206500, 9730, -157850, 238, -804, -99
199275, -263, -921, -365, 207690, 9660, -156870, 166, -970, -171
199375, -75, -985, -96, 208180, 9380, -155610, 21, -1101, -187
199475, 157, -1000, 174, 207550, 8470, -157220, -141, -1227, -94
199575, 330, -868, 435, 207900, 10430, -156800, -286, -1293, 48
199675, 531, -350, 760, 209370, 12460, -157570, -304, -1311, 214
199775, 570, -17, 832, 210560, 13580, -157850, -237, -1347, 301
199875, 504, 314, 777, 212030, 15750, -156660, -145, -1419, 274
199975, 239, 850, 464, 214060, 13300, -157920, -139, -1440, 60
200075, 48, 965, 186, 212940, 10430, -157220, -352, -1252, -97
200175, -129, 961, -67, 210630, 11200, -156310, -529, -970, -51
200275, -506, 626, -601, 72520, 5670, -53900, -564, -855, -51
200375, -491, 653, -587, 1960, 2800, -2030, -568, -822, -69
200475, -472, 691, -541, -1960, 2870, 420, -568, -828, -78
200575, -366, 817, -388, -12110, 2800, 7490, -571, -832, -93
200675, -345, 837, -362, -12670, 1960, 8960, -556, -832, -121
200775, -336, 845, -350, -8750, 2100, 6090, -567, -820, -139
200875, -350, 833, -369, 210, 2730, -840, -564, -808, -150
200975, -352, 831, -372, -280, 2660, -490, -568, -783, -159
201075, -350, 833, -368, -1680, 2590, 700, -564, -744, -171
201175, -348, 835, -366, -1750, 2590, 770, -571, -709, -171
201275, -349, 834, -367, -1540, 2590, 630, -559, -663, -156
201375, -349, 833, -368, -1540, 2660, 560, -552, -637, -151
201475, -350, 833, -368, -1540, 2660, 560, -549, -621, -141
201575, -349, 834, -368, -1540, 2660, 560, -543, -598, -130
201675, -349, 834, -368, -1610, 2660, 560, -549, -576, -108
201775, -349, 834, -367, -1540, 2660, 560, -537, -574, -88
201875, -349, 834, -368, -1540, 2590, 560, -540, -570, -79
201975, -349, 834, -367, -1540, 2590, 560, -535, -567, -58
202075, -349, 834, -368, -1540, 2660, 560, -532, -556, -43
202175, -349, 834, -367, -1540, 2660, 560, -531, -565, -34
202275, -349, 834, -368, -1540, 2660, 560, -528, -562, -27
202375, -349, 834, -368, -1540, 2660, 560, -531, -564, -22
202475, -349, 834, -367, -1540, 2660, 560, -526, -567, -19
202575, -349, 834, -367, -1540, 2660, 560, -520, -570, -10
202675, -349, 834, -367, -1540, 2660, 560, -516, -565, -1
202775, -350, 833, -368, -1540, 2590, 560, -528, -568, 9
202875, -349, 834, -367, -1540, 2590, 560, -529, -561, 9
202975, -349, 834, -368, -1540, 2590, 560, -520, -568, 10
203075, -349, 834, -368, -1540, 2590, 560, -522, -564, 12
203175, -349, 834, -367, -1540, 2660, 560, -525, -573, 4
203275, -349, 834, -367, -1540, 2660, 560, -519, -570, 4
203375, -350, 834, -367, -1540, 2590, 560, -519, -576, 10
203475, -349, 834, -367, -1540, 2660, 560, -516, -568, 12
203575, -350, 834, -367, -1540, 2590, 560, -525, -573, 18
203675, -350, 834, -367, -1540, 2590, 560, -516, -570, 24
203775, -349, 834, -367, -1540, 2590, 560, -526, -577, 15
203875, -350, 834, -367, -1540, 2590, 560, -522, -571, 18
203975, -349, 833, -367, -1540, 2590, 560, -517, -574, 18
204075, -349, 834, -367, -1540, 2590, 560, -523, -574, 16
204175, -349, 834, -367, -1540, 2590, 560, -522, -574, 12
204275, -349, 834, -367, -1540, 2590, 560, -519, -574, 13
204375, -349, 834, -367, -1540, 2590, 560, -516, -576, 13
204475, -349, 834, -367, -1540, 2590, 560, -514, -573, 12
204575, -350, 834, -367, -1540, 2590, 560, -517, -582, 18
204675, -349, 834, -367, -1540, 2590, 560, -520, -571, 16
204775, -349, 834, -367, -1540, 2660, 560, -517, -579, 19
204875, -349, 834, -367, -1540, 2660, 560, -516, -570, 16
204975, -349, 834, -367, -1540, 2660, 560, -522, -576, 15
205075, -349, 834, -367, -1540, 2660, 560, -520, -579, 13
205175, -349, 834, -367, -1540, 2660, 560, -513, -574, 13
205275, -349, 834, -367, -1540, 2660, 560, -519, -573, 9
205375, -349, 834, -367, -1540, 2590, 560, -525, -573, 22
205475, -349, 834, -367, -1540, 2660, 560, -511, -580, 15
205575, -349, 834, -367, -1540, 2660, 560, -528, -573, 13
